File: powder_X-ray_diffraction/room_temperature_experiments/NaNbO2F2/raw_data/NaNbO2F2_rt.XY
! Initial file:   .\NaNbO2F2_rt.xrdml
! Initial format:  58
! WAVE (A):      1.54060     1.54060     1.00000
! REM : data have been multiplied by     1.0000
! X_data : 2 Theta (deg.)
! Y_data : Intensity (arb. units)
!     X         Y
!--------------------------------------------------------------------------------
     5.0299    25758
     5.1218    25686
     5.2137    25369
     5.3056    25590
     5.3975    25555
     5.4895    25613
     5.5814    25098
     5.6733    25202
     5.7652    25149
     5.8571    25566
     5.9490    25402
     6.0409    25166
     6.1328    25532
     6.2248    25525
     6.3167    25366
     6.4086    25631
     6.5005    25290
     6.5924    25528
     6.6843    25629
     6.7762    25642
     6.8681    25571
     6.9600    25682
     7.0520    25857
     7.1439    25750
     7.2358    25739
     7.3277    25949
     7.4196    25680
     7.5115    25531
     7.6034    25624
     7.6953    25616
     7.7873    25563
     7.8792    25934
     7.9711    25556
     8.0630    25751
     8.1549    25465
     8.2468    25588
     8.3387    25940
     8.4306    25691
     8.5226    26215
     8.6145    26016
     8.7064    25890
     8.7983    26251
     8.8902    25993
     8.9821    25798
     9.0740    25928
     9.1659    25897
     9.2578    25614
     9.3498    25687
     9.4417    25687
     9.5336    25284
     9.6255    25455
     9.7174    25585
     9.8093    25092
     9.9012    25242
     9.9931    24790
    10.0851    25152
    10.1770    24997
    10.2689    25482
    10.3608    25095
    10.4527    24875
    10.5446    24384
    10.6365    24792
    10.7284    24417
    10.8204    24474
    10.9123    24529
    11.0042    25271
    11.0961    25679
    11.1880    34058
    11.2799    87285
    11.3718   144470
    11.4637    27262
    11.5556    24484
    11.6476    23227
    11.7395    23302
    11.8314    23332
    11.9233    23659
    12.0152    23460
    12.1071    23089
    12.1990    23361
    12.2909    23079
    12.3829    23044
    12.4748    23065
    12.5667    22834
    12.6586    23215
    12.7505    22537
    12.8424    22434
    12.9343    22334
    13.0262    21919
    13.1181    22143
    13.2101    21768
    13.3020    21550
    13.3939    21678
    13.4858    21476
    13.5777    21365
    13.6696    21422
    13.7615    22540
    13.8534    21200
    13.9454    21192
    14.0373    21125
    14.1292    20575
    14.2211    20741
    14.3130    20669
    14.4049    20969
    14.4968    22115
    14.5887    29583
    14.6807    22044
    14.7726    20480
    14.8645    20001
    14.9564    19654
    15.0483    19625
    15.1402    19612
    15.2321    19672
    15.3240    19279
    15.4159    19236
    15.5079    19338
    15.5998    19077
    15.6917    19160
    15.7836    18993
    15.8755    18778
    15.9674    19128
    16.0593    18635
    16.1512    18557
    16.2432    18604
    16.3351    18191
    16.4270    18242
    16.5189    18324
    16.6108    18404
    16.7027    18517
    16.7946    19000
    16.8865    20663
    16.9785    18118
    17.0704    17783
    17.1623    17540
    17.2542    17382
    17.3461    17292
    17.4380    17636
    17.5299    17514
    17.6218    17300
    17.7137    17207
    17.8057    17161
    17.8976    17238
    17.9895    17294
    18.0814    17732
    18.1733    16767
    18.2652    16850
    18.3571    16981
    18.4490    16752
    18.5410    16487
    18.6329    16457
    18.7248    16401
    18.8167    16336
    18.9086    16198
    19.0005    16419
    19.0924    16399
    19.1843    16199
    19.2763    16753
    19.3682    17315
    19.4601    17253
    19.5520    17548
    19.6439    18276
    19.7358    20250
    19.8277    27970
    19.9196    92489
    20.0115   274207
    20.1035    44248
    20.1954    21617
    20.2873    18794
    20.3792    17771
    20.4711    16770
    20.5630    16495
    20.6549    16298
    20.7468    16131
    20.8388    16209
    20.9307    15999
    21.0226    15831
    21.1145    15806
    21.2064    15554
    21.2983    15440
    21.3902    15915
    21.4821    15456
    21.5741    15598
    21.6660    15604
    21.7579    15532
    21.8498    15455
    21.9417    15526
    22.0336    15920
    22.1255    15618
    22.2174    15395
    22.3093    15226
    22.4013    14940
    22.4932    16079
    22.5851    17527
    22.6770    26094
    22.7689    58262
    22.8608    20438
    22.9527    15581
    23.0446    15122
    23.1366    15211
    23.2285    14992
    23.3204    14855
    23.4123    15142
    23.5042    15343
    23.5961    15577
    23.6880    16720
    23.7799    21298
    23.8719   102737
    23.9638    55789
    24.0557    19870
    24.1476    26643
    24.2395   142683
    24.3314    63587
    24.4233    18786
    24.5152    17603
    24.6071    15556
    24.6991    15014
    24.7910    14396
    24.8829    14421
    24.9748    14375
    25.0667    14223
    25.1586    14315
    25.2505    14245
    25.3424    14243
    25.4344    14556
    25.5263    14119
    25.6182    14057
    25.7101    13890
    25.8020    13812
    25.8939    14184
    25.9858    13823
    26.0777    13976
    26.1697    13980
    26.2616    14200
    26.3535    13545
    26.4454    13367
    26.5373    13545
    26.6292    13708
    26.7211    13536
    26.8130    13580
    26.9049    13586
    26.9969    13464
    27.0888    13274
    27.1807    13634
    27.2726    14174
    27.3645    14207
    27.4564    14003
    27.5483    14213
    27.6402    14199
    27.7322    14430
    27.8241    16364
    27.9160    22698
    28.0079    26845
    28.0998    93649
    28.1917   230872
    28.2836    73882
    28.3755    21922
    28.4675    16466
    28.5594    19319
    28.6513    17724
    28.7432    15766
    28.8351    15503
    28.9270    16849
    29.0189    29075
    29.1108   150829
    29.2027    68795
    29.2947    22364
    29.3866    40128
    29.4785    44904
    29.5704    25150
    29.6623    14784
    29.7542    13417
    29.8461    13772
    29.9380    13516
    30.0300    12828
    30.1219    12709
    30.2138    12736
    30.3057    12750
    30.3976    12683
    30.4895    12516
    30.5814    12721
    30.6733    12468
    30.7652    12513
    30.8572    12302
    30.9491    12360
    31.0410    12255
    31.1329    12341
    31.2248    11912
    31.3167    12000
    31.4086    12055
    31.5005    11803
    31.5925    12005
    31.6844    12046
    31.7763    11936
    31.8682    11676
    31.9601    12043
    32.0520    11967
    32.1439    11846
    32.2358    11798
    32.3278    12175
    32.4197    12011
    32.5116    12306
    32.6035    11812
    32.6954    11962
    32.7873    12204
    32.8792    12852
    32.9711    15243
    33.0630    31455
    33.1550    77320
    33.2469    39043
    33.3388    14646
    33.4307    12897
    33.5226    12159
    33.6145    12058
    33.7064    12411
    33.7983    14286
    33.8903    33693
    33.9822    32735
    34.0741    19756
    34.1660    14081
    34.2579    12397
    34.3498    19295
    34.4417    17996
    34.5336    12549
    34.6256    11607
    34.7175    11257
    34.8094    11212
    34.9013    11696
    34.9932    12033
    35.0851    20139
    35.1770    23790
    35.2689    16375
    35.3608    14034
    35.4528    12371
    35.5447    11037
    35.6366    10628
    35.7285    10609
    35.8204    10577
    35.9123    10684
    36.0042    10443
    36.0961    10510
    36.1881    10494
    36.2800    10616
    36.3719    10874
    36.4638    11718
    36.5557    22194
    36.6476    16482
    36.7395    11191
    36.8314    10777
    36.9234    10373
    37.0153    10342
    37.1072    10194
    37.1991    10434
    37.2910    10321
    37.3829    10268
    37.4748    10149
    37.5667    10489
    37.6586    10781
    37.7506    12859
    37.8425    14381
    37.9344    28279
    38.0263    28217
    38.1182    17080
    38.2101    11378
    38.3020    10630
    38.3939    10387
    38.4859    10159
    38.5778     9990
    38.6697     9959
    38.7616    10252
    38.8535    10023
    38.9454    10034
    39.0373    10175
    39.1292     9878
    39.2212    10225
    39.3131    11966
    39.4050    23920
    39.4969    17665
    39.5888    10574
    39.6807    10057
    39.7726     9830
    39.8645     9837
    39.9564     9810
    40.0484     9899
    40.1403     9847
    40.2322    10416
    40.3241    12161
    40.4160    12064
    40.5079    14004
    40.5998    16333
    40.6917    13385
    40.7837    10076
    40.8756     9853
    40.9675     9824
    41.0594    10011
    41.1513    10580
    41.2432    16169
    41.3351    15503
    41.4270    28889
    41.5190    24972
    41.6109    16784
    41.7028    10625
    41.7947     9822
    41.8866     9455
    41.9785     9669
    42.0704     9808
    42.1623     9639
    42.2542     9522
    42.3462     9677
    42.4381     9636
    42.5300     9169
    42.6219     9473
    42.7138     9164
    42.8057     9036
    42.8976     9090
    42.9895     9189
    43.0815     9178
    43.1734     9125
    43.2653     9175
    43.3572     9159
    43.4491     9098
    43.5410     9398
    43.6329     9462
    43.7248    11294
    43.8167    13804
    43.9087    11991
    44.0006    10067
    44.0925     9359
    44.1844     9139
    44.2763     9934
    44.3682     9669
    44.4601     9338
    44.5520     9361
    44.6440    10405
    44.7359    11123
    44.8278    13405
    44.9197    31809
    45.0116    22176
    45.1035    16232
    45.1954     9954
    45.2873     9366
    45.3793     9180
    45.4712     9173
    45.5631     8889
    45.6550     8883
    45.7469     8817
    45.8388     9019
    45.9307     8984
    46.0226     9085
    46.1146     9537
    46.2065    10266
    46.2984    12410
    46.3903    31987
    46.4822    20540
    46.5741    14887
    46.6660     9755
    46.7579     9377
    46.8498     9099
    46.9418     9127
    47.0337     8793
    47.1256     9120
    47.2175     9025
    47.3094     9093
    47.4013     9218
    47.4932     9870
    47.5851    10387
    47.6771    16319
    47.7690    35250
    47.8609    30498
    47.9528    15944
    48.0447    11450
    48.1366    10287
    48.2285    10782
    48.3204    12223
    48.4123    21860
    48.5043    37845
    48.5962    27382
    48.6881    16041
    48.7800    12407
    48.8719    15540
    48.9638    15474
    49.0557    11999
    49.1476    10415
    49.2396     9977
    49.3315    10881
    49.4234    14267
    49.5153    31800
    49.6072    32813
    49.6991    21313
    49.7910    13954
    49.8829    10678
    49.9749    11761
    50.0668    19427
    50.1587    50330
    50.2506    29921
    50.3425    19539
    50.4344    11184
    50.5263     9869
    50.6182     9488
    50.7102    10003
    50.8021    16741
    50.8940    14720
    50.9859    14415
    51.0778    17246
    51.1697    15168
    51.2616    14124
    51.3535    10216
    51.4454     9537
    51.5374     9369
    51.6293     9686
    51.7212    10456
    51.8131    24220
    51.9050    23221
    51.9969    26954
    52.0888    17021
    52.1807    15538
    52.2727    12057
    52.3646    11036
    52.4565     9359
    52.5484     8893
    52.6403     9083
    52.7322    14564
    52.8241    10749
    52.9160    11092
    53.0079     8898
    53.0999     8856
    53.1918     8690
    53.2837     8641
    53.3756     8409
    53.4675     8747
    53.5594     9179
    53.6513     8754
    53.7432     8442
    53.8352     8119
    53.9271     8394
    54.0190     8248
    54.1109     8593
    54.2028     8878
    54.2947     8492
    54.3866     8509
    54.4785     8222
    54.5705     8201
    54.6624     8168
    54.7543     8083
    54.8462     8133
    54.9381     8155
    55.0300     8310
    55.1219     8439
    55.2138     8554
    55.3057     8371
    55.3977     8642
    55.4896     8896
    55.5815    13282
    55.6734    12075
    55.7653    13113
    55.8572     9592
    55.9491     9590
    56.0410    12206
    56.1330    23108
    56.2249    23322
    56.3168    19318
    56.4087    12882
    56.5006    11666
    56.5925    10646
    56.6844    16912
    56.7763    14045
    56.8683    15666
    56.9602    14080
    57.0521    23895
    57.1440    13907
    57.2359    14166
    57.3278    11200
    57.4197    10352
    57.5116     9642
    57.6035     8965
    57.6955     8409
    57.7874     8725
    57.8793     8949
    57.9712    10941
    58.0631    13946
    58.1550    22607
    58.2469    18952
    58.3388    16534
    58.4308    10947
    58.5227     8846
    58.6146     8438
    58.7065     8364
    58.7984     8765
    58.8903     9339
    58.9822    10978
    59.0741    14628
    59.1661    18060
    59.2580    16013
    59.3499    25426
    59.4418    19299
    59.5337    17347
    59.6256    18812
    59.7175    18917
    59.8094    14188
    59.9013    12250
    59.9933     9579
    60.0852    10254
    60.1771    17848
    60.2690    19166
    60.3609    15818
    60.4528    12036
    60.5447     8917
    60.6366     8256
    60.7286     8596
    60.8205     9089
    60.9124    14241
    61.0043    14369
    61.0962    13385
    61.1881    11030
    61.2800     9083
    61.3719     8674
    61.4639     9005
    61.5558    11063
    61.6477    18278
    61.7396    23239
    61.8315    17854
    61.9234    15455
    62.0153    10010
    62.1072     8053
    62.1991     7889
    62.2911     7505
    62.3830     7645
    62.4749     7517
    62.5668     7403
    62.6587     7534
    62.7506     7410
    62.8425     7438
    62.9344     7732
    63.0264     7563
    63.1183     7756
    63.2102     7693
    63.3021     7367
    63.3940     7964
    63.4859     7713
    63.5778     8635
    63.6697    13090
    63.7617    17770
    63.8536    12745
    63.9455    12543
    64.0374     9095
    64.1293     8018
    64.2212     7804
    64.3131     7550
    64.4050     7521
    64.4969     7448
    64.5889     7363
    64.6808     7615
    64.7727     8839
    64.8646    11455
    64.9565     9219
    65.0484    10015
    65.1403     7837
    65.2322     7384
    65.3242     7313
    65.4161     7547
    65.5080     7567
    65.5999     7633
    65.6918     7710
    65.7837     7513
    65.8756     7460
    65.9675     7243
    66.0594     7204
    66.1514     6840
    66.2433     6925
    66.3352     6978
    66.4271     6935
    66.5190     7520
    66.6109     7331
    66.7028     7989
    66.7947     7653
    66.8867     7330
    66.9786     7086
    67.0705     7110
    67.1624     6979
    67.2543     6761
    67.3462     6766
    67.4381     7361
    67.5300     7077
    67.6220     7035
    67.7139     7059
    67.8058     6875
    67.8977     6990
    67.9896     7062
    68.0815     7137
    68.1734     7091
    68.2653     7000
    68.3573     7261
    68.4492     7205
    68.5411     7163
    68.6330     7353
    68.7249     7103
    68.8168     6990
    68.9087     6947
    69.0006     7176
    69.0925     7062
    69.1845     7378
    69.2764     8103
    69.3683    10999
    69.4602    16940
    69.5521    13263
    69.6440    13131
    69.7359    12461
    69.8278     9361
    69.9198    13290
    70.0117    14471
    70.1036    10287
    70.1955    10952
    70.2874     8061
    70.3793     7269
    70.4712     6862
    70.5631     7050
    70.6551     7321
    70.7470     7526
    70.8389     7777
    70.9308     7452
    71.0227     8396
    71.1146     8775
    71.2065     7845
    71.2984     8567
    71.3903     7789
    71.4823     7976
    71.5742     7679
    71.6661     7599
    71.7580     7245
    71.8499     7289
    71.9418     7183
    72.0337     7521
    72.1256     9316
    72.2176     8846
    72.3095    10208
    72.4014    12066
    72.4933     9866
    72.5852     9297
    72.6771     8367
    72.7690     7153
    72.8609     7207
    72.9529     8703
    73.0448     7657
    73.1367     7605
    73.2286     7596
    73.3205     7068
    73.4124     6861
    73.5043     7832
    73.5962     7301
    73.6881     7417
    73.7801     7935
    73.8720     9567
    73.9639     9537
    74.0558     8356
    74.1477     8748
    74.2396     7737
    74.3315     7275
    74.4234     7703
    74.5154     7691
    74.6073     8704
    74.6992    10354
    74.7911    12283
    74.8830    10761
    74.9749     8699
    75.0668     9195
    75.1587     7529
    75.2506     7334
    75.3426     6880
    75.4345     6962
    75.5264     6652
    75.6183     6602
    75.7102     6325
    75.8021     6608
    75.8940     6500
    75.9859     7128
    76.0779     7362
    76.1698     7146
    76.2617     6825
    76.3536     6958
    76.4455     7111
    76.5374     7287
    76.6293     8029
    76.7212     7214
    76.8132     7690
    76.9051     7030
    76.9970     7124
    77.0889     8298
    77.1808    12908
    77.2727    10987
    77.3646    13412
    77.4565    10205
    77.5484    10233
    77.6404    12705
    77.7323     8205
    77.8242     8602
    77.9161     8695
    78.0080     8054
    78.0999     6789
    78.1918     7263
    78.2837     6591
    78.3757     6325
    78.4676     6500
    78.5595     6393
    78.6514     6462
    78.7433     6466
    78.8352     6418
    78.9271     6553
    79.0190     6990
    79.1110     6903
    79.2029     7106
    79.2948     7291
    79.3867     7502
    79.4786     7427
    79.5705     8531
    79.6624     9904
    79.7543     8559
    79.8462     8830
    79.9382     9611
    80.0301     9865
    80.1220    10252
    80.2139     8763
    80.3058     8440
    80.3977     8017
    80.4896     7411
    80.5815     7517
    80.6735     8165
    80.7654     7233
    80.8573     7202
    80.9492     7444
    81.0411     7107
    81.1330     8783
    81.2249     8870
    81.3168     8362
    81.4088     9674
    81.5007     9735
    81.5926     7997
    81.6845     8250
    81.7764     8246
    81.8683     8506
    81.9602     8864
    82.0521     7738
    82.1441     7450
    82.2360     7365
    82.3279     6909
    82.4198     6681
    82.5117     6904
    82.6036     6684
    82.6955     6758
    82.7874     6818
    82.8793     7652
    82.9713     8195
    83.0632     7831
    83.1551     7807
    83.2470     9013
    83.3389     8805
    83.4308     7280
    83.5227     7535
    83.6146     7002
    83.7066     6490
    83.7985     6442
    83.8904     6273
    83.9823     6280
    84.0742     6151
    84.1661     6013
    84.2580     6003
    84.3499     6051
    84.4418     6154
    84.5338     6164
    84.6257     6469
    84.7176     6719
    84.8095     6371
    84.9014     6427
    84.9933     6528
    85.0852     6473
    85.1771     7285
    85.2691     8442
    85.3610     6989
    85.4529     6931
    85.5448     7383
    85.6367     6831
    85.7286     6199
    85.8205     6299
    85.9124     6489
    86.0043     7137
    86.0963     6627
    86.1882     6291
    86.2801     6689
    86.3720     6193
    86.4639     6201
    86.5558     6093
    86.6477     6277
    86.7396     6320
    86.8316     6351
    86.9235     7029
    87.0154     9000
    87.1073     7965
    87.1992     7427
    87.2911     8726
    87.3830     9456
    87.4749     7199
    87.5669     7722
    87.6588     9198
    87.7507     8356
    87.8426     7336
    87.9345     7335
    88.0264     7251
    88.1183     6729
    88.2102     7015
    88.3021     7014
    88.3941     6614
    88.4860     6641
    88.5779     7170
    88.6698     8346
    88.7617     8344
    88.8536     7712
    88.9455     8549
    89.0374     8374
    89.1294     7119
    89.2213     8033
    89.3132     7831
    89.4051     7450
    89.4970     7789
    89.5889     8284
    89.6808     8330
    89.7727     7106
    89.8647     7378
    89.9566     9155
    90.0485    11103
    90.1404     8773
    90.2323     7664
    90.3242     8441
    90.4161     7408
    90.5080     6206
    90.6000     6015
    90.6919     6075
    90.7838     5910
    90.8757     5864
    90.9676     5879
    91.0595     6223
    91.1514     6067
    91.2433     5966
    91.3352     6280
    91.4272     6112
    91.5191     6134
    91.6110     6245
    91.7029     6098
    91.7948     6324
    91.8867     6723
    91.9786     7073
    92.0705     6816
    92.1625     6866
    92.2544     7296
    92.3463     7967
    92.4382     7906
    92.5301     8492
    92.6220     9453
    92.7139     9128
    92.8058     8110
    92.8978     7779
    92.9897     7354
    93.0816     6776
    93.1735     6461
    93.2654     6128
    93.3573     6089
    93.4492     6187
    93.5411     6252
    93.6330     6554
    93.7250     6308
    93.8169     6132
    93.9088     5978
    94.0007     6111
    94.0926     6099
    94.1845     5895
    94.2764     5991
    94.3683     6205
    94.4603     6698
    94.5522     7233
    94.6441     6954
    94.7360     6600
    94.8279     6508
    94.9198     6408
    95.0117     6030
    95.1036     5992
    95.1955     6081
    95.2875     6648
    95.3794     7206
    95.4713     7094
    95.5632     7822
    95.6551     7680
    95.7470     8024
    95.8389     8591
    95.9308     8471
    96.0228     7012
    96.1147     7094
    96.2066     7377
    96.2985     7178
    96.3904     7119
    96.4823     6560
    96.5742     6177
    96.6661     6487
    96.7580     6228
    96.8500     6024
    96.9419     5742
    97.0338     5899
    97.1257     5499
    97.2176     5750
    97.3095     5830
    97.4014     5963
    97.4933     6061
    97.5853     6327
    97.6772     7118
    97.7691     7561
    97.8610     7845
    97.9529     7034
    98.0448     6786
    98.1367     7068
    98.2286     6827
    98.3206     6708
    98.4125     6148
    98.5044     5995
    98.5963     6257
    98.6882     6378
    98.7801     6281
    98.8720     6374
    98.9639     7163
    99.0559     6964
    99.1478     6331
    99.2397     6435
    99.3316     6927
    99.4235     7093
    99.5154     6300
    99.6073     6089
    99.6992     6076
    99.7911     6212
    99.8831     5946
    99.9750     5873
   100.0669     5844
   100.1588     5836
   100.2507     5814
   100.3426     5554
   100.4345     5590
   100.5264     5624
   100.6184     5647
   100.7103     5883
   100.8022     5778
   100.8941     5889
   100.9860     6413
   101.0779     6790
   101.1698     6240
   101.2617     5901
   101.3537     6135
   101.4456     6159
   101.5375     6205
   101.6294     6141
   101.7213     6243
   101.8132     6236
   101.9051     6072
   101.9970     6198
   102.0889     5893
   102.1809     5904
   102.2728     5700
   102.3647     5966
   102.4566     5802
   102.5485     5950
   102.6404     6076
   102.7323     5748
   102.8242     5811
   102.9162     5958
   103.0081     6350
   103.1000     6165
   103.1919     5678
   103.2838     5807
   103.3757     5977
   103.4676     5872
   103.5595     5580
   103.6515     5648
   103.7434     5740
   103.8353     5744
   103.9272     6119
   104.0191     6336
   104.1110     6135
   104.2029     5814
   104.2948     5922
   104.3867     6278
   104.4787     6230
   104.5706     6164
   104.6625     6237
   104.7544     6190
   104.8463     6429
   104.9382     6135
   105.0301     5775
   105.1220     5906
   105.2140     5917
   105.3059     5683
   105.3978     5808
   105.4897     5625
   105.5816     5668
   105.6735     5564
   105.7654     5656
   105.8573     5689
   105.9492     5872
   106.0412     5994
   106.1331     6723
   106.2250     8410
   106.3169     8835
   106.4088     7712
   106.5007     6697
   106.5926     7290
   106.6845     7262
   106.7765     6510
   106.8684     6069
   106.9603     5852
   107.0522     5622
   107.1441     5641
   107.2360     5793
   107.3279     5689
   107.4198     5789
   107.5118     5937
   107.6037     6491
   107.6956     6597
   107.7875     6644
   107.8794     6742
   107.9713     6899
   108.0632     7159
   108.1551     7910
   108.2470     7683
   108.3390     7358
   108.4309     7034
   108.5228     7415
   108.6147     7073
   108.7066     6677
   108.7985     6429
   108.8904     6979
   108.9823     7075
   109.0743     6925
   109.1662     6272
   109.2581     6037
   109.3500     6392
   109.4419     6477
   109.5338     6074
   109.6257     5987
   109.7176     5960
   109.8096     6288
   109.9015     6069
   109.9934     6111
   110.0853     6103
   110.1772     6491
   110.2691     6498
   110.3610     6917
   110.4529     7341
   110.5449     6785
   110.6368     6849
   110.7287     6929
   110.8206     7867
   110.9125     7974
   111.0044     7609
   111.0963     6734
   111.1882     6599
   111.2801     6937
   111.3721     7426
   111.4640     7769
   111.5559     6897
   111.6478     6360
   111.7397     6302
   111.8316     6623
   111.9235     6391
   112.0154     6022
   112.1074     5962
   112.1993     6244
   112.2912     6214
   112.3831     6153
   112.4750     5887
   112.5669     5823
   112.6588     5864
   112.7507     6025
   112.8427     5970
   112.9346     5763
   113.0265     5952
   113.1184     6023
   113.2103     6220
   113.3022     6286
   113.3941     6042
   113.4860     6064
   113.5779     5938
   113.6699     6504
   113.7618     6526
   113.8537     6699
   113.9456     6882
   114.0375     6620
   114.1294     6421
   114.2213     6383
   114.3132     6436
   114.4052     6348
   114.4971     6335
   114.5890     6530
   114.6809     7176
   114.7728     6894
   114.8647     6701
   114.9566     6675
   115.0485     6511
   115.1404     6568
   115.2324     6254
   115.3243     6091
   115.4162     6249
   115.5081     6251
   115.6000     6171
   115.6919     6129
   115.7838     6373
   115.8757     6462
   115.9677     6285
   116.0596     6457
   116.1515     6886
   116.2434     7263
   116.3353     6547
   116.4272     6156
   116.5191     6392
   116.6110     6637
   116.7029     6544
   116.7949     6269
   116.8868     6179
   116.9787     6316
   117.0706     6237
   117.1625     6299
   117.2544     6883
   117.3463     7119
   117.4382     6670
   117.5302     6435
   117.6221     6423
   117.7140     6327
   117.8059     6503
   117.8978     6349
   117.9897     6269
   118.0816     6364
   118.1735     6363
   118.2655     6684
   118.3574     7029
   118.4493     7206
   118.5412     7690
   118.6331     7965
   118.7250     7843
   118.8169     7396
   118.9088     7622
   119.0008     7588
   119.0927     7833
   119.1846     8203
   119.2765     7445
   119.3684     7297
   119.4603     7897
   119.5522     7959
   119.6441     7710
   119.7360     7396
   119.8280     7659
   119.9199     8536
   120.0118     9492
   120.1037     9092
   120.1956     7914
   120.2875     7269
   120.3794     7043
   120.4713     7363
   120.5633     7497
   120.6552     6908
   120.7471     6421
   120.8390     6257
   120.9309     6337
   121.0228     6499
   121.1147     6753
   121.2066     6866
   121.2986     6569
   121.3905     6484
   121.4824     6402
   121.5743     6497
   121.6662     6742
   121.7581     7049
   121.8500     7208
   121.9419     6854
   122.0338     7018
   122.1258     7336
   122.2177     7365
   122.3096     7479
   122.4015     7071
   122.4934     6985
   122.5853     6980
   122.6772     7259
   122.7691     7560
   122.8611     7701
   122.9530     7883
   123.0449     7806
   123.1368     7764
   123.2287     7359
   123.3206     7462
   123.4125     7516
   123.5044     7737
   123.5964     7977
   123.6883     8526
   123.7802     7743
   123.8721     7428
   123.9640     6835
   124.0559     6944
   124.1478     7159
   124.2397     7381
   124.3316     7610
   124.4236     7554
   124.5155     7753
   124.6074     7748
   124.6993     7630
   124.7912     7229
   124.8831     6830
   124.9750     6661
   125.0669     6872
   125.1589     6844
   125.2508     6981
   125.3427     6539
   125.4346     6217
   125.5265     6081
   125.6184     5957
   125.7103     6159
   125.8022     6050
   125.8941     6034
   125.9861     5897
   126.0780     5852
   126.1699     6161
   126.2618     5947
   126.3537     6163
   126.4456     6185
   126.5375     6117
   126.6294     6308
   126.7214     6342
   126.8133     6551
   126.9052     6439
   126.9971     6661
   127.0890     7008
   127.1809     7531
   127.2728     7805
   127.3647     7739
   127.4567     7341
   127.5486     6971
   127.6405     6839
   127.7324     6922
   127.8243     7098
   127.9162     7098
   128.0081     6947
   128.1000     6932
   128.1920     7026
   128.2839     6756
   128.3758     6764
   128.4677     6581
   128.5596     6481
   128.6515     6591
   128.7434     6492
   128.8353     6556
   128.9272     6653
   129.0192     6583
   129.1111     6688
   129.2030     6558
   129.2949     6549
   129.3868     6439
   129.4787     6458
   129.5706     6696
   129.6625     6633
   129.7545     6446
   129.8464     6618
   129.9383     6840
   130.0302     6944
   130.1221     7310
   130.2140     7459
   130.3059     7390
   130.3978     7375
   130.4897     7404
   130.5817     7277
   130.6736     7002
   130.7655     6998
   130.8574     6839
   130.9493     6928
   131.0412     7208
   131.1331     7222
   131.2251     7258
   131.3170     6980
   131.4089     6666
   131.5008     6488
   131.5927     6341
   131.6846     6367
   131.7765     6644
   131.8684     6645
   131.9603     6752
   132.0522     6566
   132.1442     6528
   132.2361     6640
   132.3280     6843
   132.4199     6821
   132.5118     6692
   132.6037     6527
   132.6956     6374
   132.7876     6496
   132.8795     6627
   132.9714     6944
   133.0633     7093
   133.1552     6702
   133.2471     6858
   133.3390     6483
   133.4309     6561
   133.5228     6715
   133.6148     6760
   133.7067     6744
   133.7986     6726
   133.8905     6448
   133.9824     6644
   134.0743     6753
   134.1662     6925
   134.2581     6872
   134.3501     7005
   134.4420     6892
   134.5339     6501
   134.6258     6641
   134.7177     6472
   134.8096     6526
   134.9015     6487
   134.9934     6687