File: powder_X-ray_diffraction/variable-temperature_experiments/NaTaO2F2/raw_data/100°C.XY
! Initial file:   D:\ZAKARY_OUAIL\MA_THESE\Deuxième_année_de_thèse\DRX\Manips_DRX\1st_NaTaO2F2_XRK900\NaTaO2F2-Lent_100°C.xrdml
! Initial format:  58
! WAVE (A):      1.54060     1.54060     1.00000
! REM : data have been multiplied by     1.0000
! X_data : 2 Theta (deg.)
! Y_data : Intensity (arb. units)
!     X         Y
!--------------------------------------------------------------------------------
    10.0116     7149
    10.0772     7064
    10.1429     6928
    10.2086     6917
    10.2742     7009
    10.3399     6747
    10.4055     6855
    10.4712     6791
    10.5368     6715
    10.6025     6667
    10.6681     6813
    10.7338     6786
    10.7994     6988
    10.8651     7148
    10.9307     7479
    10.9964     9346
    11.0620    21279
    11.1277    51315
    11.1933    20676
    11.2590     8080
    11.3246     7091
    11.3903     6588
    11.4559     6518
    11.5216     6553
    11.5872     6344
    11.6529     6349
    11.7185     6250
    11.7842     6380
    11.8498     6351
    11.9155     6105
    11.9811     6204
    12.0468     6332
    12.1124     6182
    12.1781     6234
    12.2437     6157
    12.3094     6123
    12.3750     6031
    12.4407     5997
    12.5063     5997
    12.5720     6032
    12.6377     5836
    12.7033     5805
    12.7690     5895
    12.8346     6012
    12.9003     5900
    12.9659     5861
    13.0316     5914
    13.0972     5833
    13.1629     5669
    13.2285     5912
    13.2942     5791
    13.3598     5708
    13.4255     5579
    13.4911     5696
    13.5568     5754
    13.6224     5657
    13.6881     5539
    13.7537     5585
    13.8194     5432
    13.8850     5608
    13.9507     5476
    14.0163     5357
    14.0820     5516
    14.1476     5482
    14.2133     5305
    14.2789     5507
    14.3446     5454
    14.4102     5244
    14.4759     5229
    14.5415     5271
    14.6072     5351
    14.6728     5271
    14.7385     5241
    14.8041     5328
    14.8698     5279
    14.9355     5150
    15.0011     5229
    15.0668     5217
    15.1324     5233
    15.1981     5110
    15.2637     5136
    15.3294     5155
    15.3950     5127
    15.4607     5073
    15.5263     5109
    15.5920     5105
    15.6576     4988
    15.7233     5008
    15.7889     5115
    15.8546     5090
    15.9202     5049
    15.9859     4969
    16.0515     4993
    16.1172     5179
    16.1828     5252
    16.2485     5196
    16.3141     5226
    16.3798     5087
    16.4454     5172
    16.5111     5121
    16.5767     4977
    16.6424     4988
    16.7080     4724
    16.7737     4881
    16.8393     4853
    16.9050     4951
    16.9706     4743
    17.0363     4823
    17.1019     4908
    17.1676     4706
    17.2333     4964
    17.2989     5052
    17.3646     4726
    17.4302     4684
    17.4959     4876
    17.5615     4764
    17.6272     4630
    17.6928     4709
    17.7585     4776
    17.8241     4839
    17.8898     4616
    17.9554     4526
    18.0211     4522
    18.0867     4531
    18.1524     4434
    18.2180     4447
    18.2837     4507
    18.3493     4492
    18.4150     4393
    18.4806     4398
    18.5463     4407
    18.6119     4668
    18.6776     4559
    18.7432     4482
    18.8089     4369
    18.8745     4365
    18.9402     4318
    19.0058     4455
    19.0715     4732
    19.1371     4710
    19.2028     4743
    19.2684     4894
    19.3341     4742
    19.3997     4953
    19.4654     5496
    19.5311     6018
    19.5967     9632
    19.6624    42928
    19.7280   118298
    19.7937    47447
    19.8593     9859
    19.9250     5895
    19.9906     4910
    20.0563     4784
    20.1219     4641
    20.1876     4700
    20.2532     4679
    20.3189     4517
    20.3845     4351
    20.4502     4288
    20.5158     4245
    20.5815     4306
    20.6471     4356
    20.7128     4267
    20.7784     4177
    20.8441     4152
    20.9097     4123
    20.9754     4064
    21.0410     4133
    21.1067     4120
    21.1723     4063
    21.2380     4140
    21.3036     4056
    21.3693     3988
    21.4349     4006
    21.5006     3998
    21.5662     4018
    21.6319     4172
    21.6975     4123
    21.7632     4043
    21.8288     4263
    21.8945     4381
    21.9602     4139
    22.0258     4118
    22.0915     4091
    22.1571     4094
    22.2228     4244
    22.2884     5158
    22.3541    14362
    22.4197    16640
    22.4854     7310
    22.5510     4263
    22.6167     4029
    22.6823     3918
    22.7480     3899
    22.8136     4010
    22.8793     3892
    22.9449     3942
    23.0106     3880
    23.0762     3734
    23.1419     3799
    23.2075     3768
    23.2732     3743
    23.3388     3782
    23.4045     3772
    23.4701     3865
    23.5358     3844
    23.6014     4072
    23.6671     4122
    23.7327     4053
    23.7984     4085
    23.8640     4103
    23.9297     4370
    23.9953     4698
    24.0610     4848
    24.1266     7433
    24.1923    34728
    24.2580    35750
    24.3236    14610
    24.3893    24826
    24.4549    47534
    24.5206    22286
    24.5862     5958
    24.6519     4373
    24.7175     3953
    24.7832     3889
    24.8488     3750
    24.9145     3766
    24.9801     3815
    25.0458     4027
    25.1114     3910
    25.1771     3791
    25.2427     3656
    25.3084     3627
    25.3740     3660
    25.4397     3651
    25.5053     3655
    25.5710     3619
    25.6366     3616
    25.7023     3544
    25.7679     3480
    25.8336     3598
    25.8992     3624
    25.9649     3674
    26.0305     3596
    26.0962     4159
    26.1618     3784
    26.2275     3629
    26.2931     3561
    26.3588     3602
    26.4244     3628
    26.4901     3572
    26.5558     3572
    26.6214     3530
    26.6871     3320
    26.7527     3540
    26.8184     3608
    26.8840     3650
    26.9497     3644
    27.0153     3643
    27.0810     3705
    27.1466     3642
    27.2123     3797
    27.2779     3672
    27.3436     3789
    27.4092     3886
    27.4749     4055
    27.5405     4618
    27.6062     5733
    27.6718     9532
    27.7375    47275
    27.8031    69389
    27.8688    35625
    27.9344     8155
    28.0001     4977
    28.0657     4024
    28.1314     3847
    28.1970     3612
    28.2627     3689
    28.3283     3907
    28.3940     3937
    28.4596     3901
    28.5253     3673
    28.5909     3496
    28.6566     3562
    28.7222     3516
    28.7879     3440
    28.8536     3590
    28.9192     3638
    28.9849     3593
    29.0505     3768
    29.1162     4073
    29.1818     4914
    29.2475    13497
    29.3131    31852
    29.3788    21585
    29.4444    15022
    29.5101    16656
    29.5757    10103
    29.6414     4182
    29.7070     3589
    29.7727     3462
    29.8383     3378
    29.9040     3321
    29.9696     3446
    30.0353     3381
    30.1009     3190
    30.1666     3311
    30.2322     3313
    30.2979     3373
    30.3635     3263
    30.4292     3325
    30.4948     3256
    30.5605     3212
    30.6261     3326
    30.6918     3150
    30.7574     3217
    30.8231     3208
    30.8887     3267
    30.9544     3137
    31.0200     3181
    31.0857     3173
    31.1514     3177
    31.2170     3176
    31.2827     3158
    31.3483     3070
    31.4140     3214
    31.4796     3105
    31.5453     3083
    31.6109     3162
    31.6766     3176
    31.7422     3109
    31.8079     3242
    31.8735     3066
    31.9392     3058
    32.0048     3018
    32.0705     3081
    32.1361     3148
    32.2018     3118
    32.2674     3283
    32.3331     3215
    32.3987     3088
    32.4644     3230
    32.5300     3219
    32.5957     3517
    32.6613     3829
    32.7270     4972
    32.7926    22713
    32.8583    12726
    32.9239     7044
    32.9896     3971
    33.0552     3939
    33.1209     4250
    33.1865     5166
    33.2522    21264
    33.3178    27019
    33.3835    19337
    33.4492     5756
    33.5148     4159
    33.5805     4222
    33.6461     4977
    33.7118     9867
    33.7774    29512
    33.8431    28215
    33.9087    18183
    33.9744     9402
    34.0400     4159
    34.1057     3623
    34.1713     3261
    34.2370     3284
    34.3026     3228
    34.3683     3166
    34.4339     3237
    34.4996     3188
    34.5652     3472
    34.6309     3504
    34.6965     6490
    34.7622    12670
    34.8278     9234
    34.8935     4410
    34.9591     3317
    35.0248     3480
    35.0904     3565
    35.1561     3430
    35.2217     2995
    35.2874     3100
    35.3530     2948
    35.4187     3037
    35.4843     2957
    35.5500     3002
    35.6156     2940
    35.6813     2846
    35.7470     2981
    35.8126     2923
    35.8783     2855
    35.9439     2841
    36.0096     2912
    36.0752     3144
    36.1409     3145
    36.2065     2897
    36.2722     2882
    36.3378     2817
    36.4035     2828
    36.4691     2995
    36.5348     3065
    36.6004     3467
    36.6661     8684
    36.7317     6515
    36.7974     5975
    36.8630     3232
    36.9287     3107
    36.9943     2994
    37.0600     3052
    37.1256     2922
    37.1913     2938
    37.2569     3232
    37.3226     3360
    37.3882     6717
    37.4539     9594
    37.5195     6795
    37.5852     4349
    37.6508     3196
    37.7165     3883
    37.7821     3306
    37.8478     3204
    37.9134     2790
    37.9791     2848
    38.0448     2765
    38.1104     2763
    38.1761     2662
    38.2417     2663
    38.3074     2819
    38.3730     2719
    38.4387     2797
    38.5043     2658
    38.5700     2555
    38.6356     2688
    38.7013     2780
    38.7669     2774
    38.8326     2791
    38.8982     2791
    38.9639     2673
    39.0295     2677
    39.0952     2626
    39.1608     2783
    39.2265     2737
    39.2921     2690
    39.3578     2681
    39.4234     2683
    39.4891     2664
    39.5547     2962
    39.6204     2810
    39.6860     3461
    39.7517     5246
    39.8173     4108
    39.8830     3721
    39.9486     3030
    40.0143     3675
    40.0799     7584
    40.1456     5274
    40.2112     4963
    40.2769     4048
    40.3425     9056
    40.4082     5771
    40.4739     6153
    40.5395     3413
    40.6052     2946
    40.6708     2922
    40.7365     2834
    40.8021     2905
    40.8678     3039
    40.9334     3469
    40.9991     5829
    41.0647    10990
    41.1304     7815
    41.1960    15269
    41.2617     8108
    41.3273    15724
    41.3930     8144
    41.4586     7775
    41.5243     3601
    41.5899     3041
    41.6556     2833
    41.7212     2758
    41.7869     2707
    41.8525     2718
    41.9182     2723
    41.9838     2642
    42.0495     2673
    42.1151     2689
    42.1808     2608
    42.2464     2712
    42.3121     2595
    42.3777     2726
    42.4434     2595
    42.5090     2592
    42.5747     2581
    42.6404     2686
    42.7060     2612
    42.7717     2674
    42.8373     2647
    42.9030     2716
    42.9686     2723
    43.0343     2683
    43.0999     2586
    43.1656     2518
    43.2312     2600
    43.2969     2610
    43.3625     2734
    43.4282     3025
    43.4938     3438
    43.5595     3022
    43.6251     2983
    43.6908     2614
    43.7564     2658
    43.8221     2702
    43.8877     2540
    43.9534     2650
    44.0190     2587
    44.0847     2641
    44.1503     2737
    44.2160     3405
    44.2816     3677
    44.3473     3127
    44.4129     3099
    44.4786     2737
    44.5442     3002
    44.6099     4405
    44.6755     5185
    44.7412     4029
    44.8068     3661
    44.8725     2761
    44.9381     2669
    45.0038     2692
    45.0695     2598
    45.1351     2587
    45.2008     2634
    45.2664     2611
    45.3321     2663
    45.3977     2639
    45.4634     2776
    45.5290     2849
    45.5947     2968
    45.6603     4462
    45.7260    12093
    45.7916     5108
    45.8573     6610
    45.9229     3118
    45.9886     2782
    46.0542     2656
    46.1199     2769
    46.1855     2672
    46.2512     3054
    46.3168     5342
    46.3825     5477
    46.4481     4730
    46.5138     3679
    46.5794     2746
    46.6451     2714
    46.7107     2778
    46.7764     2705
    46.8420     2686
    46.9077     2691
    46.9733     2769
    47.0390     2946
    47.1046     3233
    47.1703     4998
    47.2359     8849
    47.3016     5228
    47.3673     5863
    47.4329     3354
    47.4986     2957
    47.5642     3101
    47.6299     3309
    47.6955     3597
    47.7612     4410
    47.8268     9393
    47.8925    19463
    47.9581     9569
    48.0238    11059
    48.0894     4872
    48.1551     3480
    48.2207     3358
    48.2864     3422
    48.3520     4125
    48.4177    11818
    48.4833    12290
    48.5490     9501
    48.6146     7702
    48.6803     4406
    48.7459     4385
    48.8116    11498
    48.8772     7731
    48.9429     7737
    49.0085     5038
    49.0742     3348
    49.1398     2997
    49.2055     2903
    49.2711     2814
    49.3368     2749
    49.4024     3268
    49.4681     3278
    49.5337     3159
    49.5994     3121
    49.6651     3236
    49.7307     3083
    49.7964     3460
    49.8620     3354
    49.9277     4174
    49.9933    10477
    50.0590    16956
    50.1246    10171
    50.1903    11352
    50.2559     5259
    50.3216     3891
    50.3872     3291
    50.4529     3400
    50.5185     4009
    50.5842     7207
    50.6498    10643
    50.7155     6104
    50.7811     6902
    50.8468     3836
    50.9124     3002
    50.9781     2920
    51.0437     2842
    51.1094     2763
    51.1750     2780
    51.2407     2747
    51.3063     2978
    51.3720     2985
    51.4376     3539
    51.5033     7309
    51.5689     5868
    51.6346     5035
    51.7002     4942
    51.7659     3691
    51.8315     3038
    51.8972     3153
    51.9628     2977
    52.0285     2779
    52.0942     2689
    52.1598     2773
    52.2255     2717
    52.2911     2833
    52.3568     2908
    52.4224     2888
    52.4881     3771
    52.5537     8526
    52.6194     9721
    52.6850     5844
    52.7507     6510
    52.8163     3506
    52.8820     2985
    52.9476     3305
    53.0133     5261
    53.0789     5474
    53.1446     4104
    53.2102     4087
    53.2759     3144
    53.3415     2702
    53.4072     2666
    53.4728     2902
    53.5385     4090
    53.6041     3546
    53.6698     3354
    53.7354     3601
    53.8011     2886
    53.8667     2733
    53.9324     2606
    53.9980     2655
    54.0637     2518
    54.1293     2608
    54.1950     2539
    54.2607     2591
    54.3263     2646
    54.3920     2768
    54.4576     2940
    54.5233     2933
    54.5889     2736
    54.6546     2758
    54.7202     2683
    54.7859     2602
    54.8515     2635
    54.9172     2623
    54.9828     2653
    55.0485     2577
    55.1141     2686
    55.1798     2636
    55.2454     2827
    55.3111     2851
    55.3767     3095
    55.4424     3485
    55.5080     6161
    55.5737    11501
    55.6393     5664
    55.7050     7700
    55.7706     4709
    55.8363     3385
    55.9019     3629
    55.9676     3044
    56.0332     3122
    56.0989     2996
    56.1645     2968
    56.2302     3384
    56.2958     5958
    56.3615    11444
    56.4271     8167
    56.4928     8627
    56.5584     7687
    56.6241     4828
    56.6898     4036
    56.7554     3320
    56.8211     2928
    56.8867     2895
    56.9524     2873
    57.0180     3113
    57.0837     3548
    57.1493     6029
    57.2150     9481
    57.2806     9217
    57.3463     7310
    57.4119     9920
    57.4776     5384
    57.5432     4465
    57.6089     4173
    57.6745     3081
    57.7402     3074
    57.8058     3219
    57.8715     3899
    57.9371     7934
    58.0028     5663
    58.0684     5084
    58.1341     6024
    58.1997     3899
    58.2654     3945
    58.3310     3117
    58.3967     3324
    58.4623     3088
    58.5280     3094
    58.5936     3860
    58.6593     5990
    58.7249     8309
    58.7906     5515
    58.8562     8870
    58.9219     9830
    58.9876     4835
    59.0532     6457
    59.1189     5195
    59.1845     7748
    59.2502     8156
    59.3158     4876
    59.3815     6256
    59.4471     3931
    59.5128     3157
    59.5784     3134
    59.6441     3319
    59.7097     5690
    59.7754     9898
    59.8410     8164
    59.9067    10795
    59.9723    11505
    60.0380     5370
    60.1036     7225
    60.1693     4140
    60.2349     3006
    60.3006     2790
    60.3662     2766
    60.4319     2807
    60.4975     2828
    60.5632     2904
    60.6288     3246
    60.6945     4381
    60.7601     9769
    60.8258     8263
    60.8914    10045
    60.9571     8199
    61.0227     7135
    61.0884     6675
    61.1540     4986
    61.2197     5654
    61.2854     5163
    61.3510     3589
    61.4167     3708
    61.4823     2893
    61.5480     2602
    61.6136     2644
    61.6793     2515
    61.7449     2497
    61.8106     2440
    61.8762     2590
    61.9419     2482
    62.0075     2512
    62.0732     2558
    62.1388     2425
    62.2045     2562
    62.2701     2442
    62.3358     2468
    62.4014     2621
    62.4671     2540
    62.5327     2505
    62.5984     2499
    62.6640     2431
    62.7297     2450
    62.7953     2447
    62.8610     2362
    62.9266     2519
    62.9923     2416
    63.0579     2387
    63.1236     2365
    63.1892     2321
    63.2549     2422
    63.3205     2368
    63.3862     2471
    63.4518     2527
    63.5175     2493
    63.5831     2768
    63.6488     3070
    63.7145     4106
    63.7801     3236
    63.8458     2950
    63.9114     3286
    63.9771     2740
    64.0427     2720
    64.1084     2707
    64.1740     3572
    64.2397     5503
    64.3053     4157
    64.3710     3509
    64.4366     4029
    64.5023     2895
    64.5679     2458
    64.6336     2454
    64.6992     2411
    64.7649     2302
    64.8305     2418
    64.8962     2390
    64.9618     2482
    65.0275     2678
    65.0931     2602
    65.1588     2562
    65.2244     2858
    65.2901     2657
    65.3557     2467
    65.4214     2431
    65.4870     2433
    65.5527     2434
    65.6183     2376
    65.6840     2362
    65.7496     2321
    65.8153     2394
    65.8810     2342
    65.9466     2317
    66.0123     2381
    66.0779     2349
    66.1436     2306
    66.2092     2325
    66.2749     2365
    66.3405     2309
    66.4062     2283
    66.4718     2355
    66.5375     2435
    66.6031     2399
    66.6688     2509
    66.7344     2531
    66.8001     2557
    66.8657     2352
    66.9314     2416
    66.9970     2412
    67.0627     2396
    67.1283     2331
    67.1940     2375
    67.2596     2286
    67.3253     2330
    67.3909     2312
    67.4566     2301
    67.5222     2412
    67.5879     2312
    67.6535     2296
    67.7192     2201
    67.7848     2303
    67.8505     2402
    67.9161     2460
    67.9818     2563
    68.0474     3606
    68.1131     2804
    68.1787     2678
    68.2444     3004
    68.3101     2802
    68.3757     2926
    68.4414     2739
    68.5070     2696
    68.5727     2730
    68.6383     2635
    68.7040     2733
    68.7696     3950
    68.8353     4447
    68.9009     2865
    68.9666     3324
    69.0322     3374
    69.0979     2695
    69.1635     2509
    69.2292     2833
    69.2948     4009
    69.3605     2826
    69.4261     2738
    69.4918     3384
    69.5574     3390
    69.6231     3786
    69.6887     3377
    69.7544     3206
    69.8200     3479
    69.8857     4976
    69.9513     7189
    70.0170     4186
    70.0826     4106
    70.1483     6048
    70.2139     4595
    70.2796     3409
    70.3452     3754
    70.4109     4068
    70.4765     4859
    70.5422     4166
    70.6078     3314
    70.6735     3840
    70.7392     3578
    70.8048     2989
    70.8705     2946
    70.9361     2945
    71.0018     3249
    71.0674     3961
    71.1331     4331
    71.1987     3589
    71.2644     4785
    71.3300     5386
    71.3957     3274
    71.4613     3267
    71.5270     3681
    71.5926     2860
    71.6583     3139
    71.7239     4164
    71.7896     2944
    71.8552     2923
    71.9209     3567
    71.9865     3523
    72.0522     3577
    72.1178     3109
    72.1835     2861
    72.2491     2930
    72.3148     2824
    72.3804     2551
    72.4461     2576
    72.5117     2548
    72.5774     2530
    72.6430     2621
    72.7087     3182
    72.7743     4184
    72.8400     3178
    72.9057     3005
    72.9713     3265
    73.0370     3003
    73.1026     2584
    73.1683     2962
    73.2339     3970
    73.2996     3750
    73.3652     3356
    73.4309     3351
    73.4965     3363
    73.5622     3347
    73.6278     4106
    73.6935     3956
    73.7591     3108
    73.8248     3313
    73.8904     3362
    73.9561     2964
    74.0217     2818
    74.0874     3683
    74.1530     5304
    74.2187     5388
    74.2843     4280
    74.3500     3971
    74.4156     3743
    74.4813     3564
    74.5469     2629
    74.6126     2451
    74.6782     2462
    74.7439     2413
    74.8095     2238
    74.8752     2345
    74.9408     2265
    75.0065     2285
    75.0722     2330
    75.1378     2379
    75.2035     2319
    75.2691     2311
    75.3348     2367
    75.4004     2310
    75.4661     2315
    75.5317     2325
    75.5974     2286
    75.6630     2454
    75.7287     2536
    75.7943     2461
    75.8600     2507
    75.9256     2438
    75.9913     2455
    76.0569     2590
    76.1226     2653
    76.1882     2872
    76.2539     2811
    76.3195     3088
    76.3852     4050
    76.4508     4698
    76.5165     3593
    76.5821     3161
    76.6478     3500
    76.7134     3190
    76.7791     2706
    76.8447     2617
    76.9104     2516
    76.9760     2571
    77.0417     2784
    77.1073     3587
    77.1730     4423
    77.2386     3980
    77.3043     3227
    77.3699     3338
    77.4356     3403
    77.5013     2921
    77.5669     2737
    77.6326     3278
    77.6982     2758
    77.7639     2538
    77.8295     2619
    77.8952     2657
    77.9608     2524
    78.0265     2837
    78.0921     2851
    78.1578     2507
    78.2234     2527
    78.2891     2731
    78.3547     2758
    78.4204     3098
    78.4860     3589
    78.5517     3503
    78.6173     2988
    78.6830     3184
    78.7486     3426
    78.8143     3565
    78.8799     3412
    78.9456     3890
    79.0112     3852
    79.0769     4002
    79.1425     3924
    79.2082     3744
    79.2738     3230
    79.3395     3227
    79.4051     3231
    79.4708     3304
    79.5364     4216
    79.6021     3519
    79.6677     3011
    79.7334     3171
    79.7990     3490
    79.8647     3207
    79.9304     2728
    79.9960     2726
    80.0617     2791
    80.1273     2910
    80.1930     3348
    80.2586     4260
    80.3243     5421
    80.3899     6716
    80.4556     5170
    80.5212     4726
    80.5869     5747
    80.6525     5606
    80.7182     4893
    80.7838     4027
    80.8495     3653
    80.9151     3298
    80.9808     3513
    81.0464     3630
    81.1121     3486
    81.1777     3322
    81.2434     3573
    81.3090     3554
    81.3747     3170
    81.4403     2798
    81.5060     2807
    81.5716     2850
    81.6373     2598
    81.7029     2463
    81.7686     2453
    81.8342     2469
    81.8999     2467
    81.9655     2582
    82.0312     2749
    82.0968     2887
    82.1625     3678
    82.2281     4151
    82.2938     3627
    82.3595     3020
    82.4251     3273
    82.4908     3501
    82.5564     3424
    82.6221     3928
    82.6877     2849
    82.7534     2617
    82.8190     2873
    82.8847     3100
    82.9503     2651
    83.0160     2515
    83.0816     2478
    83.1473     2403
    83.2129     2438
    83.2786     2387
    83.3442     2371
    83.4099     2565
    83.4755     2686
    83.5412     2592
    83.6068     2619
    83.6725     2675
    83.7381     2848
    83.8038     3406
    83.8694     2897
    83.9351     2577
    84.0007     2612
    84.0664     2802
    84.1320     2657
    84.1977     2488
    84.2633     2454
    84.3290     2315
    84.3946     2408
    84.4603     2452
    84.5260     2498
    84.5916     2566
    84.6573     2322
    84.7229     2318
    84.7886     2459
    84.8542     2458
    84.9199     2400
    84.9855     2456
    85.0512     2424
    85.1168     2443
    85.1825     2307
    85.2481     2397
    85.3138     2540
    85.3794     2689
    85.4451     2897
    85.5107     2989
    85.5764     2948
    85.6420     3472
    85.7077     4187
    85.7733     3958
    85.8390     3416
    85.9046     3473
    85.9703     3490
    86.0359     3168
    86.1016     2765
    86.1672     2806
    86.2329     2646
    86.2985     2515
    86.3642     2434
    86.4298     2408
    86.4955     2573
    86.5611     2895
    86.6268     2956
    86.6925     2634
    86.7581     2572
    86.8238     2670
    86.8894     2760
    86.9551     2741
    87.0207     2999
    87.0864     3245
    87.1520     2776
    87.2177     2767
    87.2833     3097
    87.3490     3021
    87.4146     2729
    87.4803     2593
    87.5459     2649
    87.6116     2830
    87.6772     3297
    87.7429     3211
    87.8085     2718
    87.8742     2852
    87.9398     3416
    88.0055     3856
    88.0711     3019
    88.1368     2908
    88.2024     2919
    88.2681     3076
    88.3337     2821
    88.3994     2877
    88.4650     3022
    88.5307     3178
    88.5963     3666
    88.6620     3514
    88.7276     2899
    88.7933     2780
    88.8589     2956
    88.9246     3074
    88.9902     2550
    89.0559     2714
    89.1216     2915
    89.1872     3332
    89.2529     2877
    89.3185     2469
    89.3842     2700
    89.4498     2942
    89.5155     2692
    89.5811     2488
    89.6468     2386
    89.7124     2476
    89.7781     2815
    89.8437     3706
    89.9094     3301
    89.9750     2691
    90.0407     2661
    90.1063     2935
    90.1720     3081
    90.2376     3004
    90.3033     3105
    90.3689     3153
    90.4346     3009
    90.5002     3019
    90.5659     3040
    90.6315     3160
    90.6972     3123
    90.7628     3006
    90.8285     2850
    90.8941     2962
    90.9598     3347
    91.0254     2982
    91.0911     2687
    91.1567     2878
    91.2224     2970
    91.2880     3562
    91.3537     3991
    91.4193     3774
    91.4850     3176
    91.5507     2930
    91.6163     3363
    91.6820     3510
    91.7476     3793
    91.8133     3655
    91.8789     2964
    91.9446     2962
    92.0102     2999
    92.0759     3426
    92.1415     3111
    92.2072     2830
    92.2728     2795
    92.3385     2550
    92.4041     2566
    92.4698     2602
    92.5354     2673
    92.6011     2810
    92.6667     2708
    92.7324     2786
    92.7980     2948
    92.8637     3129
    92.9293     3456
    92.9950     3725
    93.0606     3094
    93.1263     2793
    93.1919     2744
    93.2576     2984
    93.3232     2943
    93.3889     2499
    93.4545     2521
    93.5202     2379
    93.5858     2341
    93.6515     2339
    93.7171     2350
    93.7828     2291
    93.8484     2360
    93.9141     2295
    93.9798     2342
    94.0454     2457
    94.1111     2597
    94.1767     2918
    94.2424     3084
    94.3080     2896
    94.3737     2809
    94.4393     2770
    94.5050     2969
    94.5706     2803
    94.6363     2697
    94.7019     2628
    94.7676     2830
    94.8332     3093
    94.8989     3354
    94.9645     3172
    95.0302     2910
    95.0958     2722
    95.1615     2799
    95.2271     2791
    95.2928     2636
    95.3584     2647
    95.4241     2389
    95.4897     2321
    95.5554     2339
    95.6210     2404
    95.6867     2263
    95.7523     2266
    95.8180     2371
    95.8836     2335
    95.9493     2372
    96.0149     2354
    96.0806     2290
    96.1463     2346
    96.2119     2290
    96.2776     2290
    96.3432     2370
    96.4089     2519
    96.4745     2468
    96.5402     2373
    96.6058     2398
    96.6715     2438
    96.7371     2541
    96.8028     2800
    96.8684     2897
    96.9341     3111
    96.9997     3469
    97.0654     3342
    97.1310     2883
    97.1967     2904
    97.2623     3337
    97.3280     3601
    97.3936     3028
    97.4593     2647
    97.5249     2712
    97.5906     3243
    97.6562     3356
    97.7219     3005
    97.7875     3045
    97.8532     3311
    97.9188     2822
    97.9845     2772
    98.0501     2570
    98.1158     2618
    98.1814     2765
    98.2471     2557
    98.3128     2317
    98.3784     2397
    98.4441     2464
    98.5097     2407
    98.5754     2527
    98.6410     2727
    98.7067     3103
    98.7723     3660
    98.8380     3579
    98.9036     3484
    98.9693     3560
    99.0349     4024
    99.1006     4540
    99.1662     4537
    99.2319     3824
    99.2975     3290
    99.3632     3403
    99.4288     3622
    99.4945     3898
    99.5601     3758
    99.6258     3601
    99.6914     3526
    99.7571     3260
    99.8227     2960
    99.8884     3110
    99.9540     3114
    99.9934     3573