File: powder_X-ray_diffraction/variable-temperature_experiments/NaTaO2F2/raw_data/120°C.XY
! Initial file:   D:\ZAKARY_OUAIL\MA_THESE\Deuxième_année_de_thèse\DRX\Manips_DRX\1st_NaTaO2F2_XRK900\NaTaO2F2-Lent_120°C.xrdml
! Initial format:  58
! WAVE (A):      1.54060     1.54060     1.00000
! REM : data have been multiplied by     1.0000
! X_data : 2 Theta (deg.)
! Y_data : Intensity (arb. units)
!     X         Y
!--------------------------------------------------------------------------------
    10.0116     7127
    10.0772     6962
    10.1429     6902
    10.2086     6805
    10.2742     6887
    10.3399     6722
    10.4055     6901
    10.4712     6791
    10.5368     6650
    10.6025     6678
    10.6681     6665
    10.7338     6801
    10.7994     6752
    10.8651     6924
    10.9307     7425
    10.9964     9312
    11.0620    21458
    11.1277    51599
    11.1933    19528
    11.2590     7937
    11.3246     6851
    11.3903     6465
    11.4559     6385
    11.5216     6373
    11.5872     6395
    11.6529     6205
    11.7185     6234
    11.7842     6204
    11.8498     6385
    11.9155     6257
    11.9811     6196
    12.0468     6120
    12.1124     6080
    12.1781     6237
    12.2437     5915
    12.3094     6112
    12.3750     5959
    12.4407     6006
    12.5063     5965
    12.5720     5932
    12.6377     5858
    12.7033     5803
    12.7690     5835
    12.8346     5692
    12.9003     5624
    12.9659     5866
    13.0316     5743
    13.0972     5714
    13.1629     5636
    13.2285     5725
    13.2942     5695
    13.3598     5598
    13.4255     5623
    13.4911     5648
    13.5568     5706
    13.6224     5564
    13.6881     5503
    13.7537     5577
    13.8194     5511
    13.8850     5478
    13.9507     5383
    14.0163     5411
    14.0820     5329
    14.1476     5323
    14.2133     5280
    14.2789     5276
    14.3446     5436
    14.4102     5307
    14.4759     5255
    14.5415     5179
    14.6072     5274
    14.6728     5256
    14.7385     5189
    14.8041     5174
    14.8698     5308
    14.9355     5049
    15.0011     5094
    15.0668     5019
    15.1324     5153
    15.1981     5025
    15.2637     4997
    15.3294     5003
    15.3950     5015
    15.4607     5041
    15.5263     4992
    15.5920     5083
    15.6576     5018
    15.7233     4978
    15.7889     5107
    15.8546     4900
    15.9202     4920
    15.9859     4790
    16.0515     5055
    16.1172     5127
    16.1828     5048
    16.2485     5048
    16.3141     5126
    16.3798     5114
    16.4454     5105
    16.5111     5125
    16.5767     4847
    16.6424     4857
    16.7080     4696
    16.7737     4871
    16.8393     4826
    16.9050     4770
    16.9706     4830
    17.0363     4768
    17.1019     4803
    17.1676     4913
    17.2333     4812
    17.2989     5064
    17.3646     4755
    17.4302     4623
    17.4959     4676
    17.5615     4591
    17.6272     4597
    17.6928     4625
    17.7585     4813
    17.8241     4619
    17.8898     4594
    17.9554     4535
    18.0211     4568
    18.0867     4376
    18.1524     4467
    18.2180     4338
    18.2837     4449
    18.3493     4596
    18.4150     4340
    18.4806     4507
    18.5463     4535
    18.6119     4526
    18.6776     4572
    18.7432     4325
    18.8089     4325
    18.8745     4314
    18.9402     4342
    19.0058     4566
    19.0715     4632
    19.1371     4701
    19.2028     4774
    19.2684     4761
    19.3341     4803
    19.3997     4825
    19.4654     5388
    19.5311     6353
    19.5967    10906
    19.6624    55120
    19.7280   113354
    19.7937    38638
    19.8593     8735
    19.9250     5664
    19.9906     4981
    20.0563     4520
    20.1219     4570
    20.1876     4815
    20.2532     4619
    20.3189     4455
    20.3845     4232
    20.4502     4324
    20.5158     4237
    20.5815     4230
    20.6471     4350
    20.7128     4226
    20.7784     4168
    20.8441     4089
    20.9097     4083
    20.9754     4075
    21.0410     3993
    21.1067     4140
    21.1723     4066
    21.2380     4032
    21.3036     4060
    21.3693     3934
    21.4349     4005
    21.5006     3981
    21.5662     3897
    21.6319     4013
    21.6975     4136
    21.7632     4134
    21.8288     4311
    21.8945     4245
    21.9602     4035
    22.0258     4046
    22.0915     4052
    22.1571     4088
    22.2228     4151
    22.2884     5508
    22.3541    16042
    22.4197    16084
    22.4854     6611
    22.5510     4229
    22.6167     3997
    22.6823     3983
    22.7480     4020
    22.8136     3931
    22.8793     3844
    22.9449     3836
    23.0106     3791
    23.0762     3849
    23.1419     3689
    23.2075     3745
    23.2732     3795
    23.3388     3847
    23.4045     3830
    23.4701     3877
    23.5358     3871
    23.6014     3896
    23.6671     3950
    23.7327     3941
    23.7984     4036
    23.8640     4059
    23.9297     4213
    23.9953     4631
    24.0610     4992
    24.1266     7904
    24.1923    36049
    24.2580    34828
    24.3236    14145
    24.3893    30955
    24.4549    46035
    24.5206    18971
    24.5862     5560
    24.6519     4329
    24.7175     3993
    24.7832     3865
    24.8488     3924
    24.9145     3841
    24.9801     3886
    25.0458     3965
    25.1114     3771
    25.1771     3612
    25.2427     3672
    25.3084     3683
    25.3740     3614
    25.4397     3683
    25.5053     3626
    25.5710     3602
    25.6366     3655
    25.7023     3580
    25.7679     3484
    25.8336     3555
    25.8992     3529
    25.9649     3579
    26.0305     3723
    26.0962     4147
    26.1618     3857
    26.2275     3666
    26.2931     3609
    26.3588     3494
    26.4244     3609
    26.4901     3414
    26.5558     3490
    26.6214     3419
    26.6871     3386
    26.7527     3408
    26.8184     3631
    26.8840     3716
    26.9497     3635
    27.0153     3744
    27.0810     3806
    27.1466     3740
    27.2123     3657
    27.2779     3687
    27.3436     3631
    27.4092     3841
    27.4749     4116
    27.5405     4649
    27.6062     5938
    27.6718    11169
    27.7375    61092
    27.8031    64274
    27.8688    28776
    27.9344     7226
    28.0001     4703
    28.0657     3968
    28.1314     3737
    28.1970     3585
    28.2627     3661
    28.3283     3953
    28.3940     3822
    28.4596     3669
    28.5253     3596
    28.5909     3602
    28.6566     3509
    28.7222     3516
    28.7879     3517
    28.8536     3622
    28.9192     3646
    28.9849     3619
    29.0505     3819
    29.1162     4178
    29.1818     5078
    29.2475    17207
    29.3131    28699
    29.3788    19728
    29.4444    17020
    29.5101    15324
    29.5757     8515
    29.6414     4084
    29.7070     3604
    29.7727     3454
    29.8383     3308
    29.9040     3412
    29.9696     3417
    30.0353     3383
    30.1009     3388
    30.1666     3335
    30.2322     3236
    30.2979     3346
    30.3635     3226
    30.4292     3294
    30.4948     3230
    30.5605     3301
    30.6261     3111
    30.6918     3220
    30.7574     3060
    30.8231     3005
    30.8887     3179
    30.9544     3145
    31.0200     3221
    31.0857     3185
    31.1514     3214
    31.2170     3160
    31.2827     3060
    31.3483     3141
    31.4140     3172
    31.4796     3133
    31.5453     3188
    31.6109     3166
    31.6766     3207
    31.7422     3111
    31.8079     3071
    31.8735     3060
    31.9392     3111
    32.0048     3136
    32.0705     3154
    32.1361     3070
    32.2018     3135
    32.2674     3272
    32.3331     3193
    32.3987     3217
    32.4644     3273
    32.5300     3364
    32.5957     3601
    32.6613     3807
    32.7270     7368
    32.7926    19788
    32.8583    13969
    32.9239     5183
    32.9896     3817
    33.0552     3821
    33.1209     4235
    33.1865     5562
    33.2522    24995
    33.3178    24526
    33.3835    18116
    33.4492     5586
    33.5148     4213
    33.5805     4326
    33.6461     5309
    33.7118    14613
    33.7774    30101
    33.8431    29731
    33.9087    14808
    33.9744     7879
    34.0400     3881
    34.1057     3387
    34.1713     3273
    34.2370     3179
    34.3026     3197
    34.3683     3155
    34.4339     3219
    34.4996     3219
    34.5652     3460
    34.6309     3832
    34.6965    10346
    34.7622     9734
    34.8278     8326
    34.8935     3642
    34.9591     3267
    35.0248     3637
    35.0904     3477
    35.1561     3312
    35.2217     3046
    35.2874     2965
    35.3530     2956
    35.4187     2936
    35.4843     2900
    35.5500     2976
    35.6156     2903
    35.6813     2880
    35.7470     2880
    35.8126     2924
    35.8783     3017
    35.9439     2760
    36.0096     2961
    36.0752     3070
    36.1409     3077
    36.2065     3024
    36.2722     2946
    36.3378     2984
    36.4035     2919
    36.4691     3030
    36.5348     3103
    36.6004     3476
    36.6661     8867
    36.7317     6313
    36.7974     6069
    36.8630     3171
    36.9287     3025
    36.9943     2989
    37.0600     2984
    37.1256     3012
    37.1913     3070
    37.2569     3172
    37.3226     3690
    37.3882     8775
    37.4539     8102
    37.5195     6628
    37.5852     3582
    37.6508     3228
    37.7165     3715
    37.7821     3323
    37.8478     3054
    37.9134     2879
    37.9791     2846
    38.0448     2757
    38.1104     2727
    38.1761     2701
    38.2417     2813
    38.3074     2698
    38.3730     2762
    38.4387     2754
    38.5043     2778
    38.5700     2768
    38.6356     2808
    38.7013     2804
    38.7669     2821
    38.8326     2717
    38.8982     2862
    38.9639     2785
    39.0295     2745
    39.0952     2781
    39.1608     2835
    39.2265     2680
    39.2921     2784
    39.3578     2767
    39.4234     2672
    39.4891     2830
    39.5547     2753
    39.6204     3048
    39.6860     3940
    39.7517     4866
    39.8173     4035
    39.8830     3469
    39.9486     3112
    40.0143     4503
    40.0799     7182
    40.1456     5443
    40.2112     4346
    40.2769     3832
    40.3425     9691
    40.4082     5591
    40.4739     6087
    40.5395     3332
    40.6052     2873
    40.6708     2827
    40.7365     2807
    40.8021     3031
    40.8678     3192
    40.9334     3825
    40.9991     8167
    41.0647     9454
    41.1304     9817
    41.1960    13427
    41.2617     9976
    41.3273    14873
    41.3930     7163
    41.4586     6022
    41.5243     3150
    41.5899     2823
    41.6556     2736
    41.7212     2800
    41.7869     2763
    41.8525     2729
    41.9182     2680
    41.9838     2534
    42.0495     2647
    42.1151     2652
    42.1808     2670
    42.2464     2617
    42.3121     2675
    42.3777     2695
    42.4434     2621
    42.5090     2677
    42.5747     2706
    42.6404     2706
    42.7060     2683
    42.7717     2704
    42.8373     2730
    42.9030     2732
    42.9686     2636
    43.0343     2754
    43.0999     2629
    43.1656     2752
    43.2312     2714
    43.2969     2657
    43.3625     2654
    43.4282     3232
    43.4938     3136
    43.5595     3095
    43.6251     2708
    43.6908     2616
    43.7564     2747
    43.8221     2742
    43.8877     2629
    43.9534     2521
    44.0190     2625
    44.0847     2702
    44.1503     2901
    44.2160     3576
    44.2816     3364
    44.3473     3398
    44.4129     2862
    44.4786     2793
    44.5442     3296
    44.6099     5628
    44.6755     4296
    44.7412     4218
    44.8068     3098
    44.8725     2752
    44.9381     2703
    45.0038     2660
    45.0695     2552
    45.1351     2546
    45.2008     2576
    45.2664     2654
    45.3321     2546
    45.3977     2682
    45.4634     2730
    45.5290     2858
    45.5947     3014
    45.6603     5783
    45.7260     9807
    45.7916     5764
    45.8573     5236
    45.9229     3049
    45.9886     2755
    46.0542     2649
    46.1199     2764
    46.1855     2831
    46.2512     3040
    46.3168     5889
    46.3825     4848
    46.4481     4852
    46.5138     3517
    46.5794     2898
    46.6451     2775
    46.7107     2645
    46.7764     2665
    46.8420     2695
    46.9077     2813
    46.9733     2962
    47.0390     3065
    47.1046     3518
    47.1703     6858
    47.2359     7414
    47.3016     5429
    47.3673     4619
    47.4329     3256
    47.4986     2968
    47.5642     3104
    47.6299     3364
    47.6955     3747
    47.7612     5237
    47.8268    14627
    47.8925    14637
    47.9581    10949
    48.0238     8272
    48.0894     4111
    48.1551     3355
    48.2207     3252
    48.2864     3425
    48.3520     5127
    48.4177    12667
    48.4833    11800
    48.5490     8880
    48.6146     7123
    48.6803     3959
    48.7459     5033
    48.8116    13385
    48.8772     6321
    48.9429     8262
    49.0085     4116
    49.0742     3095
    49.1398     3040
    49.2055     2883
    49.2711     2774
    49.3368     2771
    49.4024     3427
    49.4681     3234
    49.5337     3239
    49.5994     3345
    49.6651     3136
    49.7307     3238
    49.7964     3343
    49.8620     3628
    49.9277     4781
    49.9933    14738
    50.0590    13384
    50.1246    11633
    50.1903     8813
    50.2559     4810
    50.3216     3692
    50.3872     3327
    50.4529     3507
    50.5185     4797
    50.5842    10281
    50.6498     7404
    50.7155     6959
    50.7811     5097
    50.8468     3287
    50.9124     2963
    50.9781     2787
    51.0437     2785
    51.1094     2776
    51.1750     2709
    51.2407     2929
    51.3063     2894
    51.3720     3134
    51.4376     4595
    51.5033     8867
    51.5689     4277
    51.6346     6126
    51.7002     3979
    51.7659     3307
    51.8315     3079
    51.8972     2992
    51.9628     2753
    52.0285     2714
    52.0942     2697
    52.1598     2704
    52.2255     2672
    52.2911     2828
    52.3568     2939
    52.4224     3044
    52.4881     4189
    52.5537     9744
    52.6194     8835
    52.6850     6220
    52.7507     6274
    52.8163     3298
    52.8820     3078
    52.9476     4025
    53.0133     5625
    53.0789     5081
    53.1446     4186
    53.2102     3836
    53.2759     2898
    53.3415     2689
    53.4072     2674
    53.4728     3049
    53.5385     4087
    53.6041     3666
    53.6698     3391
    53.7354     3343
    53.8011     2700
    53.8667     2733
    53.9324     2614
    53.9980     2538
    54.0637     2572
    54.1293     2589
    54.1950     2541
    54.2607     2701
    54.3263     2753
    54.3920     2908
    54.4576     2993
    54.5233     2780
    54.5889     2769
    54.6546     2746
    54.7202     2600
    54.7859     2708
    54.8515     2605
    54.9172     2510
    54.9828     2617
    55.0485     2690
    55.1141     2692
    55.1798     2640
    55.2454     2749
    55.3111     3000
    55.3767     3197
    55.4424     4274
    55.5080    10214
    55.5737     7839
    55.6393     6319
    55.7050     6660
    55.7706     3775
    55.8363     3582
    55.9019     3191
    55.9676     2995
    56.0332     3207
    56.0989     2970
    56.1645     3125
    56.2302     3542
    56.2958     7268
    56.3615    11644
    56.4271     8184
    56.4928     9203
    56.5584     7072
    56.6241     4159
    56.6898     4021
    56.7554     3129
    56.8211     2832
    56.8867     2840
    56.9524     3036
    57.0180     3228
    57.0837     4272
    57.1493     7929
    57.2150    10116
    57.2806     7451
    57.3463     8363
    57.4119     8594
    57.4776     4380
    57.5432     4920
    57.6089     3590
    57.6745     3246
    57.7402     3112
    57.8058     3255
    57.8715     4500
    57.9371     8651
    58.0028     4838
    58.0684     6075
    58.1341     5028
    58.1997     3975
    58.2654     3510
    58.3310     3176
    58.3967     3152
    58.4623     3034
    58.5280     3388
    58.5936     4766
    58.6593     8011
    58.7249     6236
    58.7906     6377
    58.8562    11262
    58.9219     5908
    58.9876     5344
    59.0532     6192
    59.1189     5972
    59.1845     9717
    59.2502     5249
    59.3158     5775
    59.3815     5030
    59.4471     3308
    59.5128     3067
    59.5784     3162
    59.6441     3953
    59.7097     7223
    59.7754     9462
    59.8410     7601
    59.9067    12917
    59.9723     9425
    60.0380     5501
    60.1036     6839
    60.1693     3700
    60.2349     3006
    60.3006     2851
    60.3662     2893
    60.4319     2798
    60.4975     2977
    60.5632     3117
    60.6288     3476
    60.6945     5811
    60.7601    10391
    60.8258     9256
    60.8914     9617
    60.9571     7147
    61.0227     7415
    61.0884     5488
    61.1540     5256
    61.2197     5700
    61.2854     3908
    61.3510     3776
    61.4167     3452
    61.4823     2655
    61.5480     2597
    61.6136     2514
    61.6793     2581
    61.7449     2598
    61.8106     2489
    61.8762     2561
    61.9419     2521
    62.0075     2503
    62.0732     2419
    62.1388     2530
    62.2045     2526
    62.2701     2418
    62.3358     2475
    62.4014     2614
    62.4671     2469
    62.5327     2423
    62.5984     2483
    62.6640     2490
    62.7297     2366
    62.7953     2524
    62.8610     2379
    62.9266     2545
    62.9923     2379
    63.0579     2384
    63.1236     2327
    63.1892     2436
    63.2549     2440
    63.3205     2423
    63.3862     2321
    63.4518     2465
    63.5175     2632
    63.5831     2881
    63.6488     3431
    63.7145     3829
    63.7801     2931
    63.8458     3290
    63.9114     3027
    63.9771     2771
    64.0427     2669
    64.1084     3065
    64.1740     4574
    64.2397     4966
    64.3053     3623
    64.3710     3818
    64.4366     3487
    64.5023     2657
    64.5679     2580
    64.6336     2392
    64.6992     2410
    64.7649     2401
    64.8305     2426
    64.8962     2414
    64.9618     2592
    65.0275     2523
    65.0931     2596
    65.1588     2728
    65.2244     2556
    65.2901     2443
    65.3557     2466
    65.4214     2385
    65.4870     2411
    65.5527     2337
    65.6183     2301
    65.6840     2360
    65.7496     2333
    65.8153     2392
    65.8810     2434
    65.9466     2306
    66.0123     2338
    66.0779     2411
    66.1436     2404
    66.2092     2376
    66.2749     2381
    66.3405     2339
    66.4062     2375
    66.4718     2365
    66.5375     2440
    66.6031     2405
    66.6688     2421
    66.7344     2591
    66.8001     2386
    66.8657     2418
    66.9314     2465
    66.9970     2439
    67.0627     2288
    67.1283     2307
    67.1940     2276
    67.2596     2358
    67.3253     2398
    67.3909     2261
    67.4566     2288
    67.5222     2390
    67.5879     2367
    67.6535     2381
    67.7192     2339
    67.7848     2274
    67.8505     2340
    67.9161     2411
    67.9818     2711
    68.0474     3628
    68.1131     2740
    68.1787     2692
    68.2444     3117
    68.3101     2873
    68.3757     2727
    68.4414     2702
    68.5070     2675
    68.5727     2711
    68.6383     2705
    68.7040     3564
    68.7696     5168
    68.8353     2909
    68.9009     3078
    68.9666     3624
    69.0322     2700
    69.0979     2591
    69.1635     2632
    69.2292     2943
    69.2948     3860
    69.3605     2838
    69.4261     3039
    69.4918     3857
    69.5574     3839
    69.6231     3542
    69.6887     3079
    69.7544     3310
    69.8200     3775
    69.8857     5979
    69.9513     6499
    70.0170     3875
    70.0826     4918
    70.1483     6123
    70.2139     3853
    70.2796     3472
    70.3452     3891
    70.4109     3600
    70.4765     4982
    70.5422     4033
    70.6078     3297
    70.6735     4047
    70.7392     3380
    70.8048     2914
    70.8705     2989
    70.9361     3101
    71.0018     3838
    71.0674     4269
    71.1331     3786
    71.1987     3782
    71.2644     5995
    71.3300     4040
    71.3957     3062
    71.4613     3760
    71.5270     3190
    71.5926     2743
    71.6583     3415
    71.7239     3996
    71.7896     2994
    71.8552     3029
    71.9209     3775
    71.9865     3683
    72.0522     3377
    72.1178     2890
    72.1835     2934
    72.2491     2934
    72.3148     2615
    72.3804     2421
    72.4461     2518
    72.5117     2496
    72.5774     2533
    72.6430     2846
    72.7087     3934
    72.7743     3692
    72.8400     2829
    72.9057     3082
    72.9713     3194
    73.0370     2729
    73.1026     2729
    73.1683     3417
    73.2339     4208
    73.2996     3394
    73.3652     3213
    73.4309     3553
    73.4965     3382
    73.5622     3927
    73.6278     3946
    73.6935     3551
    73.7591     3188
    73.8248     3358
    73.8904     3090
    73.9561     2789
    74.0217     3346
    74.0874     5209
    74.1530     5282
    74.2187     4602
    74.2843     3787
    74.3500     3666
    74.4156     3732
    74.4813     2682
    74.5469     2550
    74.6126     2410
    74.6782     2420
    74.7439     2466
    74.8095     2356
    74.8752     2372
    74.9408     2303
    75.0065     2376
    75.0722     2352
    75.1378     2340
    75.2035     2305
    75.2691     2383
    75.3348     2333
    75.4004     2327
    75.4661     2358
    75.5317     2408
    75.5974     2352
    75.6630     2598
    75.7287     2476
    75.7943     2441
    75.8600     2386
    75.9256     2466
    75.9913     2468
    76.0569     2644
    76.1226     2791
    76.1882     2858
    76.2539     2862
    76.3195     3418
    76.3852     4680
    76.4508     4252
    76.5165     3240
    76.5821     3332
    76.6478     3505
    76.7134     2885
    76.7791     2627
    76.8447     2579
    76.9104     2644
    76.9760     2794
    77.0417     3373
    77.1073     4272
    77.1730     4176
    77.2386     3170
    77.3043     3283
    77.3699     3436
    77.4356     2977
    77.5013     2653
    77.5669     2797
    77.6326     3096
    77.6982     2678
    77.7639     2603
    77.8295     2772
    77.8952     2602
    77.9608     2494
    78.0265     2816
    78.0921     2697
    78.1578     2603
    78.2234     2672
    78.2891     2781
    78.3547     2926
    78.4204     3271
    78.4860     3445
    78.5517     3342
    78.6173     3026
    78.6830     3246
    78.7486     3428
    78.8143     3584
    78.8799     3854
    78.9456     3924
    79.0112     3927
    79.0769     4210
    79.1425     3924
    79.2082     3221
    79.2738     3167
    79.3395     3172
    79.4051     3130
    79.4708     3818
    79.5364     3997
    79.6021     2960
    79.6677     2970
    79.7334     3521
    79.7990     3287
    79.8647     2874
    79.9304     2662
    79.9960     2737
    80.0617     2793
    80.1273     3332
    80.1930     3776
    80.2586     4820
    80.3243     5768
    80.3899     6263
    80.4556     5087
    80.5212     5123
    80.5869     5774
    80.6525     5003
    80.7182     4712
    80.7838     3882
    80.8495     3394
    80.9151     3511
    80.9808     3684
    81.0464     3510
    81.1121     3333
    81.1777     3513
    81.2434     3698
    81.3090     3397
    81.3747     2841
    81.4403     2826
    81.5060     2802
    81.5716     2614
    81.6373     2465
    81.7029     2460
    81.7686     2477
    81.8342     2415
    81.8999     2532
    81.9655     2530
    82.0312     2734
    82.0968     3350
    82.1625     4309
    82.2281     4121
    82.2938     3171
    82.3595     3034
    82.4251     3315
    82.4908     3180
    82.5564     3515
    82.6221     3481
    82.6877     2702
    82.7534     2699
    82.8190     3005
    82.8847     2821
    82.9503     2469
    83.0160     2520
    83.0816     2410
    83.1473     2488
    83.2129     2417
    83.2786     2453
    83.3442     2537
    83.4099     2704
    83.4755     2568
    83.5412     2604
    83.6068     2719
    83.6725     2823
    83.7381     3317
    83.8038     3193
    83.8694     2669
    83.9351     2566
    84.0007     2807
    84.0664     2622
    84.1320     2410
    84.1977     2384
    84.2633     2378
    84.3290     2406
    84.3946     2490
    84.4603     2462
    84.5260     2476
    84.5916     2383
    84.6573     2459
    84.7229     2427
    84.7886     2453
    84.8542     2446
    84.9199     2384
    84.9855     2394
    85.0512     2304
    85.1168     2490
    85.1825     2453
    85.2481     2504
    85.3138     2830
    85.3794     2899
    85.4451     3112
    85.5107     2945
    85.5764     3271
    85.6420     3928
    85.7077     4009
    85.7733     3530
    85.8390     3416
    85.9046     3597
    85.9703     3227
    86.0359     2967
    86.1016     2810
    86.1672     2665
    86.2329     2460
    86.2985     2419
    86.3642     2461
    86.4298     2517
    86.4955     2896
    86.5611     3107
    86.6268     2700
    86.6925     2616
    86.7581     2692
    86.8238     2857
    86.8894     2679
    86.9551     3012
    87.0207     3234
    87.0864     2803
    87.1520     2708
    87.2177     2919
    87.2833     3250
    87.3490     2804
    87.4146     2652
    87.4803     2717
    87.5459     3070
    87.6116     3347
    87.6772     3107
    87.7429     2713
    87.8085     2745
    87.8742     3249
    87.9398     3875
    88.0055     3353
    88.0711     2839
    88.1368     2873
    88.2024     3059
    88.2681     2964
    88.3337     2687
    88.3994     2997
    88.4650     3262
    88.5307     3792
    88.5963     3560
    88.6620     2867
    88.7276     2756
    88.7933     2931
    88.8589     3108
    88.9246     2646
    88.9902     2582
    89.0559     2743
    89.1216     3187
    89.1872     3109
    89.2529     2662
    89.3185     2615
    89.3842     2810
    89.4498     2895
    89.5155     2480
    89.5811     2408
    89.6468     2453
    89.7124     2732
    89.7781     3103
    89.8437     3846
    89.9094     3036
    89.9750     2665
    90.0407     2827
    90.1063     3142
    90.1720     3164
    90.2376     3131
    90.3033     3277
    90.3689     3071
    90.4346     3049
    90.5002     2978
    90.5659     3161
    90.6315     3040
    90.6972     3009
    90.7628     3028
    90.8285     2948
    90.8941     3377
    90.9598     2901
    91.0254     2727
    91.0911     2818
    91.1567     2996
    91.2224     3328
    91.2880     3894
    91.3537     3847
    91.4193     3579
    91.4850     3021
    91.5507     3016
    91.6163     3458
    91.6820     3472
    91.7476     3925
    91.8133     3289
    91.8789     2831
    91.9446     3034
    92.0102     3244
    92.0759     3243
    92.1415     2930
    92.2072     2782
    92.2728     2737
    92.3385     2523
    92.4041     2603
    92.4698     2705
    92.5354     2839
    92.6011     2781
    92.6667     2780
    92.7324     2822
    92.7980     3122
    92.8637     3328
    92.9293     3722
    92.9950     3064
    93.0606     2795
    93.1263     2696
    93.1919     3097
    93.2576     2817
    93.3232     2600
    93.3889     2419
    93.4545     2459
    93.5202     2397
    93.5858     2328
    93.6515     2400
    93.7171     2342
    93.7828     2417
    93.8484     2336
    93.9141     2389
    93.9798     2418
    94.0454     2574
    94.1111     3022
    94.1767     3104
    94.2424     2827
    94.3080     2805
    94.3737     2823
    94.4393     2949
    94.5050     2701
    94.5706     2590
    94.6363     2636
    94.7019     2784
    94.7676     3080
    94.8332     3507
    94.8989     3345
    94.9645     2876
    95.0302     2662
    95.0958     2832
    95.1615     2865
    95.2271     2642
    95.2928     2561
    95.3584     2346
    95.4241     2335
    95.4897     2390
    95.5554     2337
    95.6210     2367
    95.6867     2376
    95.7523     2345
    95.8180     2357
    95.8836     2342
    95.9493     2361
    96.0149     2345
    96.0806     2216
    96.1463     2324
    96.2119     2380
    96.2776     2410
    96.3432     2494
    96.4089     2609
    96.4745     2408
    96.5402     2490
    96.6058     2431
    96.6715     2528
    96.7371     2690
    96.8028     2815
    96.8684     3103
    96.9341     3602
    96.9997     3256
    97.0654     2812
    97.1310     3028
    97.1967     3507
    97.2623     3501
    97.3280     3050
    97.3936     2656
    97.4593     2673
    97.5249     3049
    97.5906     3325
    97.6562     3225
    97.7219     3106
    97.7875     3198
    97.8532     2928
    97.9188     2815
    97.9845     2747
    98.0501     2711
    98.1158     2655
    98.1814     2534
    98.2471     2481
    98.3128     2467
    98.3784     2553
    98.4441     2416
    98.5097     2477
    98.5754     2590
    98.6410     2943
    98.7067     3559
    98.7723     3744
    98.8380     3562
    98.9036     3329
    98.9693     3484
    99.0349     4287
    99.1006     4573
    99.1662     4404
    99.2319     3665
    99.2975     3426
    99.3632     3579
    99.4288     3861
    99.4945     3973
    99.5601     3985
    99.6258     3586
    99.6914     3228
    99.7571     2983
    99.8227     2972
    99.8884     3102
    99.9540     3364
    99.9934     3637