File: powder_X-ray_diffraction/variable-temperature_experiments/NaTaO2F2/raw_data/140°C.XY
! Initial file:   D:\ZAKARY_OUAIL\MA_THESE\Deuxième_année_de_thèse\DRX\Manips_DRX\1st_NaTaO2F2_XRK900\NaTaO2F2-Lent_140°C.xrdml
! Initial format:  58
! WAVE (A):      1.54060     1.54060     1.00000
! REM : data have been multiplied by     1.0000
! X_data : 2 Theta (deg.)
! Y_data : Intensity (arb. units)
!     X         Y
!--------------------------------------------------------------------------------
    10.0116     6876
    10.0772     6753
    10.1429     6844
    10.2086     6678
    10.2742     6628
    10.3399     6830
    10.4055     6676
    10.4712     6549
    10.5368     6443
    10.6025     6516
    10.6681     6766
    10.7338     6698
    10.7994     6692
    10.8651     6807
    10.9307     7359
    10.9964     9606
    11.0620    22064
    11.1277    51521
    11.1933    18999
    11.2590     7618
    11.3246     6656
    11.3903     6509
    11.4559     6376
    11.5216     6413
    11.5872     6332
    11.6529     6185
    11.7185     6289
    11.7842     6193
    11.8498     6152
    11.9155     6002
    11.9811     6088
    12.0468     6030
    12.1124     6058
    12.1781     5926
    12.2437     5894
    12.3094     5863
    12.3750     5916
    12.4407     5839
    12.5063     5895
    12.5720     6012
    12.6377     5756
    12.7033     5651
    12.7690     5699
    12.8346     5788
    12.9003     5746
    12.9659     5694
    13.0316     5671
    13.0972     5625
    13.1629     5436
    13.2285     5516
    13.2942     5528
    13.3598     5711
    13.4255     5556
    13.4911     5519
    13.5568     5639
    13.6224     5443
    13.6881     5404
    13.7537     5552
    13.8194     5514
    13.8850     5564
    13.9507     5277
    14.0163     5359
    14.0820     5252
    14.1476     5329
    14.2133     5282
    14.2789     5281
    14.3446     5350
    14.4102     5301
    14.4759     5210
    14.5415     5253
    14.6072     5156
    14.6728     5072
    14.7385     5370
    14.8041     5139
    14.8698     5147
    14.9355     5027
    15.0011     5137
    15.0668     4978
    15.1324     5007
    15.1981     5058
    15.2637     5039
    15.3294     5162
    15.3950     4878
    15.4607     4998
    15.5263     5020
    15.5920     4979
    15.6576     4935
    15.7233     4960
    15.7889     4931
    15.8546     4865
    15.9202     4893
    15.9859     4944
    16.0515     4928
    16.1172     5069
    16.1828     4793
    16.2485     5034
    16.3141     5112
    16.3798     5162
    16.4454     4976
    16.5111     5020
    16.5767     4980
    16.6424     4849
    16.7080     4682
    16.7737     4729
    16.8393     4815
    16.9050     4757
    16.9706     4691
    17.0363     4657
    17.1019     4757
    17.1676     4809
    17.2333     4783
    17.2989     4828
    17.3646     4820
    17.4302     4720
    17.4959     4623
    17.5615     4499
    17.6272     4583
    17.6928     4525
    17.7585     4893
    17.8241     4628
    17.8898     4452
    17.9554     4387
    18.0211     4394
    18.0867     4443
    18.1524     4422
    18.2180     4480
    18.2837     4430
    18.3493     4357
    18.4150     4358
    18.4806     4399
    18.5463     4542
    18.6119     4495
    18.6776     4505
    18.7432     4362
    18.8089     4227
    18.8745     4234
    18.9402     4304
    19.0058     4484
    19.0715     4642
    19.1371     4729
    19.2028     4702
    19.2684     4802
    19.3341     4653
    19.3997     4965
    19.4654     5329
    19.5311     6360
    19.5967    12626
    19.6624    70715
    19.7280   105717
    19.7937    30716
    19.8593     7693
    19.9250     5382
    19.9906     4748
    20.0563     4644
    20.1219     4488
    20.1876     4681
    20.2532     4519
    20.3189     4398
    20.3845     4220
    20.4502     4203
    20.5158     4316
    20.5815     4283
    20.6471     4168
    20.7128     4178
    20.7784     4146
    20.8441     4090
    20.9097     4169
    20.9754     4065
    21.0410     3931
    21.1067     4001
    21.1723     3965
    21.2380     3996
    21.3036     3997
    21.3693     3900
    21.4349     3874
    21.5006     4063
    21.5662     3987
    21.6319     3950
    21.6975     4010
    21.7632     4034
    21.8288     4230
    21.8945     4246
    21.9602     4141
    22.0258     4138
    22.0915     3935
    22.1571     4012
    22.2228     4077
    22.2884     5657
    22.3541    17819
    22.4197    16175
    22.4854     6234
    22.5510     4193
    22.6167     4005
    22.6823     3845
    22.7480     3945
    22.8136     3897
    22.8793     3885
    22.9449     3794
    23.0106     3833
    23.0762     3838
    23.1419     3824
    23.2075     3716
    23.2732     3749
    23.3388     3772
    23.4045     3891
    23.4701     3833
    23.5358     3988
    23.6014     3957
    23.6671     3951
    23.7327     3958
    23.7984     3872
    23.8640     4057
    23.9297     4256
    23.9953     4617
    24.0610     5086
    24.1266     8275
    24.1923    37872
    24.2580    34307
    24.3236    14223
    24.3893    36714
    24.4549    43105
    24.5206    16097
    24.5862     5178
    24.6519     4257
    24.7175     3957
    24.7832     3826
    24.8488     3758
    24.9145     3807
    24.9801     3623
    25.0458     3934
    25.1114     3689
    25.1771     3670
    25.2427     3680
    25.3084     3647
    25.3740     3671
    25.4397     3680
    25.5053     3777
    25.5710     3654
    25.6366     3559
    25.7023     3560
    25.7679     3475
    25.8336     3586
    25.8992     3496
    25.9649     3622
    26.0305     3683
    26.0962     4149
    26.1618     3931
    26.2275     3570
    26.2931     3464
    26.3588     3551
    26.4244     3524
    26.4901     3567
    26.5558     3433
    26.6214     3522
    26.6871     3487
    26.7527     3554
    26.8184     3619
    26.8840     3606
    26.9497     3559
    27.0153     3713
    27.0810     3679
    27.1466     3750
    27.2123     3594
    27.2779     3840
    27.3436     3670
    27.4092     3991
    27.4749     4226
    27.5405     4879
    27.6062     6501
    27.6718    13529
    27.7375    72603
    27.8031    60056
    27.8688    22550
    27.9344     6571
    28.0001     4536
    28.0657     3974
    28.1314     3715
    28.1970     3666
    28.2627     3732
    28.3283     4064
    28.3940     3727
    28.4596     3732
    28.5253     3503
    28.5909     3677
    28.6566     3505
    28.7222     3522
    28.7879     3465
    28.8536     3665
    28.9192     3542
    28.9849     3768
    29.0505     3797
    29.1162     4250
    29.1818     5351
    29.2475    21504
    29.3131    26372
    29.3788    18062
    29.4444    19160
    29.5101    14141
    29.5757     6951
    29.6414     3794
    29.7070     3522
    29.7727     3454
    29.8383     3420
    29.9040     3427
    29.9696     3349
    30.0353     3313
    30.1009     3330
    30.1666     3342
    30.2322     3226
    30.2979     3263
    30.3635     3357
    30.4292     3280
    30.4948     3261
    30.5605     3226
    30.6261     3114
    30.6918     3186
    30.7574     3308
    30.8231     3228
    30.8887     3229
    30.9544     3191
    31.0200     3067
    31.0857     3167
    31.1514     3148
    31.2170     3112
    31.2827     3150
    31.3483     3127
    31.4140     3036
    31.4796     3176
    31.5453     3137
    31.6109     3182
    31.6766     3105
    31.7422     3153
    31.8079     3156
    31.8735     3088
    31.9392     3073
    32.0048     3070
    32.0705     3116
    32.1361     3174
    32.2018     3222
    32.2674     3214
    32.3331     3098
    32.3987     3197
    32.4644     3235
    32.5300     3356
    32.5957     3670
    32.6613     4005
    32.7270    13151
    32.7926    14185
    32.8583    11337
    32.9239     4228
    32.9896     3809
    33.0552     3888
    33.1209     4202
    33.1865     5902
    33.2522    28145
    33.3178    23525
    33.3835    16275
    33.4492     5215
    33.5148     4257
    33.5805     4588
    33.6461     6275
    33.7118    20701
    33.7774    26867
    33.8431    29707
    33.9087    12532
    33.9744     6815
    34.0400     3843
    34.1057     3387
    34.1713     3211
    34.2370     3133
    34.3026     3221
    34.3683     3159
    34.4339     3213
    34.4996     3332
    34.5652     3467
    34.6309     4510
    34.6965    14434
    34.7622     8664
    34.8278     6575
    34.8935     3499
    34.9591     3249
    35.0248     3949
    35.0904     3333
    35.1561     3032
    35.2217     2884
    35.2874     3022
    35.3530     2945
    35.4187     2974
    35.4843     2936
    35.5500     2930
    35.6156     2937
    35.6813     2853
    35.7470     2899
    35.8126     2961
    35.8783     2872
    35.9439     2871
    36.0096     3079
    36.0752     2930
    36.1409     3002
    36.2065     2915
    36.2722     2980
    36.3378     2913
    36.4035     2863
    36.4691     2902
    36.5348     3081
    36.6004     3544
    36.6661     8765
    36.7317     6281
    36.7974     5976
    36.8630     3222
    36.9287     3070
    36.9943     2931
    37.0600     2915
    37.1256     2999
    37.1913     3183
    37.2569     3255
    37.3226     4577
    37.3882     9952
    37.4539     7086
    37.5195     5796
    37.5852     3249
    37.6508     3359
    37.7165     3409
    37.7821     3403
    37.8478     2945
    37.9134     2768
    37.9791     2889
    38.0448     2773
    38.1104     2709
    38.1761     2793
    38.2417     2676
    38.3074     2710
    38.3730     2839
    38.4387     2719
    38.5043     2663
    38.5700     2769
    38.6356     2725
    38.7013     2838
    38.7669     2693
    38.8326     2656
    38.8982     2712
    38.9639     2818
    39.0295     2744
    39.0952     2717
    39.1608     2739
    39.2265     2764
    39.2921     2727
    39.3578     2690
    39.4234     2771
    39.4891     2786
    39.5547     2871
    39.6204     2993
    39.6860     4491
    39.7517     4524
    39.8173     4143
    39.8830     3294
    39.9486     3362
    40.0143     6244
    40.0799     6031
    40.1456     5730
    40.2112     3779
    40.2769     4195
    40.3425     9644
    40.4082     5666
    40.4739     5496
    40.5395     3238
    40.6052     2941
    40.6708     2918
    40.7365     2916
    40.8021     3025
    40.8678     3381
    40.9334     4797
    40.9991    10758
    41.0647     7733
    41.1304    12504
    41.1960    10581
    41.2617    13564
    41.3273    10542
    41.3930     7681
    41.4586     4449
    41.5243     3068
    41.5899     2818
    41.6556     2755
    41.7212     2740
    41.7869     2748
    41.8525     2661
    41.9182     2557
    41.9838     2632
    42.0495     2727
    42.1151     2640
    42.1808     2565
    42.2464     2653
    42.3121     2729
    42.3777     2784
    42.4434     2782
    42.5090     2723
    42.5747     2586
    42.6404     2682
    42.7060     2639
    42.7717     2759
    42.8373     2699
    42.9030     2738
    42.9686     2745
    43.0343     2616
    43.0999     2646
    43.1656     2642
    43.2312     2540
    43.2969     2747
    43.3625     2815
    43.4282     3492
    43.4938     2992
    43.5595     3085
    43.6251     2729
    43.6908     2646
    43.7564     2567
    43.8221     2642
    43.8877     2689
    43.9534     2660
    44.0190     2743
    44.0847     2563
    44.1503     2976
    44.2160     3870
    44.2816     3269
    44.3473     3275
    44.4129     2967
    44.4786     2998
    44.5442     4137
    44.6099     5459
    44.6755     4054
    44.7412     3835
    44.8068     2817
    44.8725     2706
    44.9381     2709
    45.0038     2686
    45.0695     2491
    45.1351     2565
    45.2008     2618
    45.2664     2551
    45.3321     2561
    45.3977     2709
    45.4634     2839
    45.5290     2800
    45.5947     3225
    45.6603     8621
    45.7260     7472
    45.7916     6753
    45.8573     4347
    45.9229     3033
    45.9886     2802
    46.0542     2747
    46.1199     2842
    46.1855     2864
    46.2512     3084
    46.3168     6114
    46.3825     4737
    46.4481     4996
    46.5138     3422
    46.5794     2791
    46.6451     2801
    46.7107     2824
    46.7764     2689
    46.8420     2689
    46.9077     2784
    46.9733     2953
    47.0390     3097
    47.1046     4443
    47.1703     8385
    47.2359     5271
    47.3016     5856
    47.3673     3556
    47.4329     3021
    47.4986     3027
    47.5642     3248
    47.6299     3484
    47.6955     3904
    47.7612     6837
    47.8268    20306
    47.8925    11005
    47.9581    12486
    48.0238     5908
    48.0894     3598
    48.1551     3172
    48.2207     3240
    48.2864     3531
    48.3520     6702
    48.4177    13034
    48.4833    10577
    48.5490     8719
    48.6146     6185
    48.6803     3943
    48.7459     6761
    48.8116    12552
    48.8772     6195
    48.9429     7672
    49.0085     3580
    49.0742     3012
    49.1398     2889
    49.2055     2844
    49.2711     2798
    49.3368     2821
    49.4024     3309
    49.4681     3200
    49.5337     3324
    49.5994     3423
    49.6651     3186
    49.7307     3293
    49.7964     3410
    49.8620     3739
    49.9277     5884
    49.9933    18496
    50.0590    10823
    50.1246    12849
    50.1903     6999
    50.2559     4377
    50.3216     3572
    50.3872     3351
    50.4529     3915
    50.5185     7039
    50.5842    11201
    50.6498     6207
    50.7155     7031
    50.7811     3818
    50.8468     3069
    50.9124     2903
    50.9781     2745
    51.0437     2764
    51.1094     2834
    51.1750     2752
    51.2407     2884
    51.3063     2964
    51.3720     3605
    51.4376     8017
    51.5033     5800
    51.5689     5240
    51.6346     4689
    51.7002     3645
    51.7659     3057
    51.8315     3155
    51.8972     2786
    51.9628     2766
    52.0285     2686
    52.0942     2737
    52.1598     2692
    52.2255     2838
    52.2911     2732
    52.3568     2950
    52.4224     3185
    52.4881     4997
    52.5537    10585
    52.6194     7449
    52.6850     6567
    52.7507     5385
    52.8163     3259
    52.8820     3342
    52.9476     4857
    53.0133     5745
    53.0789     4498
    53.1446     4274
    53.2102     3356
    53.2759     2773
    53.3415     2669
    53.4072     2640
    53.4728     3038
    53.5385     4186
    53.6041     3439
    53.6698     3545
    53.7354     3233
    53.8011     2827
    53.8667     2688
    53.9324     2655
    53.9980     2576
    54.0637     2707
    54.1293     2786
    54.1950     2665
    54.2607     2619
    54.3263     2886
    54.3920     3014
    54.4576     2967
    54.5233     2768
    54.5889     2740
    54.6546     2758
    54.7202     2694
    54.7859     2637
    54.8515     2645
    54.9172     2587
    54.9828     2641
    55.0485     2738
    55.1141     2669
    55.1798     2778
    55.2454     2938
    55.3111     3023
    55.3767     3487
    55.4424     6632
    55.5080    11139
    55.5737     5694
    55.6393     7806
    55.7050     4652
    55.7706     3505
    55.8363     3506
    55.9019     3054
    55.9676     3087
    56.0332     2954
    56.0989     2949
    56.1645     3101
    56.2302     3745
    56.2958     8353
    56.3615    12330
    56.4271     7041
    56.4928    10003
    56.5584     5788
    56.6241     4222
    56.6898     3426
    56.7554     2919
    56.8211     2917
    56.8867     2943
    56.9524     3047
    57.0180     3576
    57.0837     5984
    57.1493     9388
    57.2150     9000
    57.2806     7215
    57.3463     9351
    57.4119     5926
    57.4776     4411
    57.5432     4602
    57.6089     3247
    57.6745     3085
    57.7402     3062
    57.8058     3415
    57.8715     5723
    57.9371     8138
    58.0028     4840
    58.0684     6823
    58.1341     4486
    58.1997     3917
    58.2654     3357
    58.3310     3327
    58.3967     3150
    58.4623     3223
    58.5280     3885
    58.5936     6688
    58.6593     8015
    58.7249     5564
    58.7906     8824
    58.8562     9391
    58.9219     4756
    58.9876     6398
    59.0532     5586
    59.1189     8954
    59.1845     6852
    59.2502     5110
    59.3158     6139
    59.3815     3652
    59.4471     3126
    59.5128     3184
    59.5784     3314
    59.6441     4924
    59.7097     8364
    59.7754     8011
    59.8410     8093
    59.9067    13304
    59.9723     7423
    60.0380     5749
    60.1036     6277
    60.1693     3348
    60.2349     2933
    60.3006     2904
    60.3662     2885
    60.4319     2848
    60.4975     2953
    60.5632     3189
    60.6288     3856
    60.6945     8125
    60.7601    10049
    60.8258     9829
    60.8914     8420
    60.9571     7516
    61.0227     6664
    61.0884     4937
    61.1540     5650
    61.2197     4953
    61.2854     3724
    61.3510     3691
    61.4167     2958
    61.4823     2652
    61.5480     2546
    61.6136     2502
    61.6793     2481
    61.7449     2529
    61.8106     2526
    61.8762     2547
    61.9419     2505
    62.0075     2565
    62.0732     2507
    62.1388     2488
    62.2045     2388
    62.2701     2357
    62.3358     2503
    62.4014     2533
    62.4671     2519
    62.5327     2525
    62.5984     2519
    62.6640     2486
    62.7297     2505
    62.7953     2430
    62.8610     2437
    62.9266     2497
    62.9923     2545
    63.0579     2520
    63.1236     2456
    63.1892     2429
    63.2549     2457
    63.3205     2544
    63.3862     2506
    63.4518     2608
    63.5175     2765
    63.5831     3106
    63.6488     3916
    63.7145     3413
    63.7801     2998
    63.8458     3368
    63.9114     2755
    63.9771     2659
    64.0427     2853
    64.1084     3860
    64.1740     4598
    64.2397     4639
    64.3053     3728
    64.3710     3644
    64.4366     3237
    64.5023     2559
    64.5679     2404
    64.6336     2401
    64.6992     2383
    64.7649     2400
    64.8305     2407
    64.8962     2441
    64.9618     2651
    65.0275     2748
    65.0931     2745
    65.1588     2766
    65.2244     2604
    65.2901     2467
    65.3557     2444
    65.4214     2410
    65.4870     2372
    65.5527     2354
    65.6183     2350
    65.6840     2377
    65.7496     2384
    65.8153     2311
    65.8810     2396
    65.9466     2363
    66.0123     2420
    66.0779     2404
    66.1436     2352
    66.2092     2305
    66.2749     2329
    66.3405     2349
    66.4062     2430
    66.4718     2521
    66.5375     2542
    66.6031     2386
    66.6688     2447
    66.7344     2571
    66.8001     2507
    66.8657     2361
    66.9314     2455
    66.9970     2389
    67.0627     2403
    67.1283     2425
    67.1940     2322
    67.2596     2316
    67.3253     2424
    67.3909     2379
    67.4566     2362
    67.5222     2306
    67.5879     2394
    67.6535     2324
    67.7192     2373
    67.7848     2413
    67.8505     2457
    67.9161     2436
    67.9818     2758
    68.0474     3703
    68.1131     2788
    68.1787     2752
    68.2444     3033
    68.3101     3073
    68.3757     2852
    68.4414     2737
    68.5070     2756
    68.5727     2773
    68.6383     3258
    68.7040     5264
    68.7696     3207
    68.8353     2950
    68.9009     3752
    68.9666     2748
    69.0322     2487
    69.0979     2603
    69.1635     2665
    69.2292     3331
    69.2948     3566
    69.3605     2821
    69.4261     3309
    69.4918     4162
    69.5574     3811
    69.6231     3093
    69.6887     3231
    69.7544     3357
    69.8200     4120
    69.8857     6911
    69.9513     5174
    70.0170     4022
    70.0826     5944
    70.1483     4998
    70.2139     3570
    70.2796     3809
    70.3452     3535
    70.4109     3659
    70.4765     5105
    70.5422     3834
    70.6078     3501
    70.6735     4011
    70.7392     3230
    70.8048     3023
    70.8705     3249
    70.9361     3662
    71.0018     4286
    71.0674     4025
    71.1331     3518
    71.1987     4324
    71.2644     5610
    71.3300     3371
    71.3957     3103
    71.4613     3806
    71.5270     2984
    71.5926     2852
    71.6583     3651
    71.7239     3729
    71.7896     2982
    71.8552     3536
    71.9209     3998
    71.9865     3645
    72.0522     3044
    72.1178     2968
    72.1835     2956
    72.2491     2655
    72.3148     2608
    72.3804     2481
    72.4461     2512
    72.5117     2539
    72.5774     2770
    72.6430     3596
    72.7087     4155
    72.7743     2961
    72.8400     3060
    72.9057     3246
    72.9713     2779
    73.0370     2701
    73.1026     2993
    73.1683     4049
    73.2339     3861
    73.2996     3213
    73.3652     3428
    73.4309     3488
    73.4965     3756
    73.5622     4136
    73.6278     3725
    73.6935     3332
    73.7591     3253
    73.8248     3173
    73.8904     2932
    73.9561     3178
    74.0217     4869
    74.0874     5277
    74.1530     5065
    74.2187     3796
    74.2843     3952
    74.3500     3802
    74.4156     2855
    74.4813     2463
    74.5469     2422
    74.6126     2438
    74.6782     2307
    74.7439     2485
    74.8095     2368
    74.8752     2408
    74.9408     2412
    75.0065     2337
    75.0722     2409
    75.1378     2317
    75.2035     2439
    75.2691     2365
    75.3348     2352
    75.4004     2414
    75.4661     2389
    75.5317     2274
    75.5974     2424
    75.6630     2507
    75.7287     2439
    75.7943     2454
    75.8600     2531
    75.9256     2613
    75.9913     2617
    76.0569     2684
    76.1226     2929
    76.1882     2902
    76.2539     3164
    76.3195     4129
    76.3852     4778
    76.4508     3490
    76.5165     3125
    76.5821     3518
    76.6478     3238
    76.7134     2714
    76.7791     2562
    76.8447     2567
    76.9104     2624
    76.9760     3170
    77.0417     4244
    77.1073     4342
    77.1730     3337
    77.2386     3159
    77.3043     3430
    77.3699     3083
    77.4356     2625
    77.5013     2505
    77.5669     2865
    77.6326     3157
    77.6982     2588
    77.7639     2546
    77.8295     2837
    77.8952     2758
    77.9608     2616
    78.0265     2880
    78.0921     2680
    78.1578     2604
    78.2234     2677
    78.2891     2839
    78.3547     3119
    78.4204     3406
    78.4860     3388
    78.5517     3151
    78.6173     3221
    78.6830     3255
    78.7486     3705
    78.8143     4077
    78.8799     3993
    78.9456     3899
    79.0112     4183
    79.0769     4139
    79.1425     3350
    79.2082     3170
    79.2738     3241
    79.3395     3065
    79.4051     3234
    79.4708     4155
    79.5364     3346
    79.6021     3047
    79.6677     3303
    79.7334     3657
    79.7990     3023
    79.8647     2825
    79.9304     2768
    79.9960     2801
    80.0617     2974
    80.1273     3543
    80.1930     4547
    80.2586     4886
    80.3243     5911
    80.3899     5960
    80.4556     5245
    80.5212     5488
    80.5869     5196
    80.6525     5091
    80.7182     4286
    80.7838     3567
    80.8495     3401
    80.9151     3950
    80.9808     3560
    81.0464     3226
    81.1121     3287
    81.1777     3841
    81.2434     3586
    81.3090     2965
    81.3747     2852
    81.4403     2754
    81.5060     2792
    81.5716     2511
    81.6373     2416
    81.7029     2518
    81.7686     2557
    81.8342     2529
    81.8999     2620
    81.9655     2780
    82.0312     3184
    82.0968     3906
    82.1625     4069
    82.2281     3389
    82.2938     3140
    82.3595     3340
    82.4251     3225
    82.4908     3100
    82.5564     3659
    82.6221     3112
    82.6877     2719
    82.7534     2789
    82.8190     3207
    82.8847     2736
    82.9503     2522
    83.0160     2476
    83.0816     2538
    83.1473     2512
    83.2129     2435
    83.2786     2566
    83.3442     2616
    83.4099     2682
    83.4755     2807
    83.5412     2762
    83.6068     2848
    83.6725     3138
    83.7381     3332
    83.8038     2730
    83.8694     2641
    83.9351     2692
    84.0007     2833
    84.0664     2562
    84.1320     2414
    84.1977     2364
    84.2633     2384
    84.3290     2395
    84.3946     2458
    84.4603     2659
    84.5260     2511
    84.5916     2439
    84.6573     2386
    84.7229     2493
    84.7886     2416
    84.8542     2445
    84.9199     2418
    84.9855     2382
    85.0512     2391
    85.1168     2415
    85.1825     2442
    85.2481     2625
    85.3138     2947
    85.3794     2975
    85.4451     3110
    85.5107     3079
    85.5764     3679
    85.6420     4198
    85.7077     3910
    85.7733     3286
    85.8390     3452
    85.9046     3448
    85.9703     3155
    86.0359     2847
    86.1016     2770
    86.1672     2533
    86.2329     2379
    86.2985     2491
    86.3642     2484
    86.4298     2847
    86.4955     3029
    86.5611     2632
    86.6268     2631
    86.6925     2669
    86.7581     2850
    86.8238     2606
    86.8894     2902
    86.9551     3421
    87.0207     2911
    87.0864     2812
    87.1520     2915
    87.2177     3192
    87.2833     2985
    87.3490     2727
    87.4146     2656
    87.4803     2966
    87.5459     3378
    87.6116     3095
    87.6772     2805
    87.7429     2700
    87.8085     3140
    87.8742     3566
    87.9398     3569
    88.0055     2900
    88.0711     2877
    88.1368     2938
    88.2024     3010
    88.2681     2749
    88.3337     2842
    88.3994     3283
    88.4650     3697
    88.5307     3804
    88.5963     2808
    88.6620     2756
    88.7276     3032
    88.7933     3057
    88.8589     2740
    88.9246     2621
    88.9902     2638
    89.0559     2980
    89.1216     3243
    89.1872     2825
    89.2529     2644
    89.3185     2707
    89.3842     2952
    89.4498     2785
    89.5155     2566
    89.5811     2471
    89.6468     2597
    89.7124     2932
    89.7781     3245
    89.8437     3636
    89.9094     2889
    89.9750     2751
    90.0407     2832
    90.1063     3202
    90.1720     3211
    90.2376     3310
    90.3033     3132
    90.3689     3103
    90.4346     3106
    90.5002     3115
    90.5659     3025
    90.6315     2882
    90.6972     2946
    90.7628     3121
    90.8285     3442
    90.8941     2832
    90.9598     2730
    91.0254     2679
    91.0911     2969
    91.1567     3171
    91.2224     3464
    91.2880     3585
    91.3537     3705
    91.4193     3263
    91.4850     3002
    91.5507     3156
    91.6163     3353
    91.6820     3854
    91.7476     3718
    91.8133     3044
    91.8789     3052
    91.9446     3206
    92.0102     3237
    92.0759     3019
    92.1415     2863
    92.2072     2682
    92.2728     2532
    92.3385     2628
    92.4041     2771
    92.4698     2838
    92.5354     2819
    92.6011     2851
    92.6667     2852
    92.7324     3002
    92.7980     3366
    92.8637     3784
    92.9293     3179
    92.9950     2780
    93.0606     2842
    93.1263     2972
    93.1919     2883
    93.2576     2677
    93.3232     2508
    93.3889     2435
    93.4545     2341
    93.5202     2403
    93.5858     2317
    93.6515     2364
    93.7171     2342
    93.7828     2378
    93.8484     2352
    93.9141     2484
    93.9798     2733
    94.0454     3025
    94.1111     2937
    94.1767     2804
    94.2424     2865
    94.3080     3007
    94.3737     2889
    94.4393     2741
    94.5050     2693
    94.5706     2699
    94.6363     2663
    94.7019     2985
    94.7676     3689
    94.8332     3218
    94.8989     2827
    94.9645     2597
    95.0302     2595
    95.0958     2881
    95.1615     2702
    95.2271     2512
    95.2928     2379
    95.3584     2380
    95.4241     2378
    95.4897     2342
    95.5554     2388
    95.6210     2382
    95.6867     2302
    95.7523     2372
    95.8180     2386
    95.8836     2325
    95.9493     2350
    96.0149     2349
    96.0806     2361
    96.1463     2393
    96.2119     2425
    96.2776     2587
    96.3432     2486
    96.4089     2423
    96.4745     2340
    96.5402     2395
    96.6058     2611
    96.6715     2730
    96.7371     2803
    96.8028     3333
    96.8684     3648
    96.9341     3044
    96.9997     2816
    97.0654     3193
    97.1310     3636
    97.1967     3355
    97.2623     2794
    97.3280     2736
    97.3936     2824
    97.4593     2997
    97.5249     3132
    97.5906     3148
    97.6562     3218
    97.7219     3242
    97.7875     2835
    97.8532     2722
    97.9188     2755
    97.9845     2827
    98.0501     2731
    98.1158     2646
    98.1814     2467
    98.2471     2435
    98.3128     2439
    98.3784     2463
    98.4441     2471
    98.5097     2578
    98.5754     2791
    98.6410     3432
    98.7067     3976
    98.7723     3698
    98.8380     3280
    98.9036     3214
    98.9693     3836
    99.0349     4499
    99.1006     4597
    99.1662     4108
    99.2319     3467
    99.2975     3540
    99.3632     3671
    99.4288     3918
    99.4945     4075
    99.5601     3755
    99.6258     3252
    99.6914     2870
    99.7571     2936
    99.8227     3011
    99.8884     3092
    99.9540     3528
    99.9934     3413