File: powder_X-ray_diffraction/variable-temperature_experiments/NaTaO2F2/raw_data/180°C.XY
! Initial file:   D:\ZAKARY_OUAIL\MA_THESE\Deuxième_année_de_thèse\DRX\Manips_DRX\1st_NaTaO2F2_XRK900\NaTaO2F2-Lent_180°C.xrdml
! Initial format:  58
! WAVE (A):      1.54060     1.54060     1.00000
! REM : data have been multiplied by     1.0000
! X_data : 2 Theta (deg.)
! Y_data : Intensity (arb. units)
!     X         Y
!--------------------------------------------------------------------------------
    10.0116     6865
    10.0772     6866
    10.1429     6674
    10.2086     6581
    10.2742     6567
    10.3399     6517
    10.4055     6514
    10.4712     6531
    10.5368     6448
    10.6025     6392
    10.6681     6492
    10.7338     6586
    10.7994     6584
    10.8651     6629
    10.9307     7059
    10.9964     9587
    11.0620    22990
    11.1277    51041
    11.1933    17369
    11.2590     7390
    11.3246     6569
    11.3903     6466
    11.4559     6110
    11.5216     6138
    11.5872     6183
    11.6529     5977
    11.7185     6065
    11.7842     6142
    11.8498     5988
    11.9155     6022
    11.9811     5883
    12.0468     5912
    12.1124     5760
    12.1781     5922
    12.2437     5763
    12.3094     5800
    12.3750     5753
    12.4407     5941
    12.5063     5679
    12.5720     5653
    12.6377     5711
    12.7033     5699
    12.7690     5719
    12.8346     5652
    12.9003     5491
    12.9659     5594
    13.0316     5574
    13.0972     5612
    13.1629     5494
    13.2285     5558
    13.2942     5419
    13.3598     5437
    13.4255     5389
    13.4911     5497
    13.5568     5364
    13.6224     5335
    13.6881     5402
    13.7537     5319
    13.8194     5251
    13.8850     5157
    13.9507     5275
    14.0163     5351
    14.0820     5239
    14.1476     5300
    14.2133     5220
    14.2789     5120
    14.3446     5235
    14.4102     5195
    14.4759     5185
    14.5415     5089
    14.6072     5010
    14.6728     5226
    14.7385     5002
    14.8041     5018
    14.8698     4931
    14.9355     5085
    15.0011     5011
    15.0668     4915
    15.1324     4912
    15.1981     4845
    15.2637     4896
    15.3294     5022
    15.3950     5002
    15.4607     4883
    15.5263     4838
    15.5920     4945
    15.6576     4930
    15.7233     4853
    15.7889     4780
    15.8546     4841
    15.9202     4880
    15.9859     4694
    16.0515     4844
    16.1172     4884
    16.1828     4926
    16.2485     4971
    16.3141     4926
    16.3798     4921
    16.4454     4851
    16.5111     4879
    16.5767     4708
    16.6424     4735
    16.7080     4681
    16.7737     4567
    16.8393     4723
    16.9050     4570
    16.9706     4641
    17.0363     4719
    17.1019     4479
    17.1676     4618
    17.2333     4736
    17.2989     4814
    17.3646     4592
    17.4302     4423
    17.4959     4502
    17.5615     4534
    17.6272     4626
    17.6928     4542
    17.7585     4835
    17.8241     4616
    17.8898     4271
    17.9554     4515
    18.0211     4442
    18.0867     4501
    18.1524     4306
    18.2180     4445
    18.2837     4451
    18.3493     4264
    18.4150     4151
    18.4806     4370
    18.5463     4269
    18.6119     4388
    18.6776     4348
    18.7432     4300
    18.8089     4267
    18.8745     4176
    18.9402     4186
    19.0058     4445
    19.0715     4610
    19.1371     4698
    19.2028     4503
    19.2684     4620
    19.3341     4717
    19.3997     4993
    19.4654     5566
    19.5311     7073
    19.5967    18345
    19.6624   105131
    19.7280    92824
    19.7937    19642
    19.8593     6701
    19.9250     5073
    19.9906     4585
    20.0563     4523
    20.1219     4554
    20.1876     4772
    20.2532     4575
    20.3189     4219
    20.3845     4237
    20.4502     4223
    20.5158     4237
    20.5815     4127
    20.6471     4103
    20.7128     4056
    20.7784     4049
    20.8441     4058
    20.9097     4053
    20.9754     4186
    21.0410     4010
    21.1067     4072
    21.1723     3869
    21.2380     3919
    21.3036     3882
    21.3693     3907
    21.4349     3985
    21.5006     3902
    21.5662     3924
    21.6319     4045
    21.6975     3799
    21.7632     4015
    21.8288     4330
    21.8945     4170
    21.9602     4060
    22.0258     3938
    22.0915     3965
    22.1571     4047
    22.2228     4154
    22.2884     6101
    22.3541    19534
    22.4197    14394
    22.4854     5295
    22.5510     4144
    22.6167     3845
    22.6823     3771
    22.7480     3920
    22.8136     3879
    22.8793     3998
    22.9449     3698
    23.0106     3793
    23.0762     3702
    23.1419     3651
    23.2075     3683
    23.2732     3769
    23.3388     3872
    23.4045     3807
    23.4701     3741
    23.5358     3866
    23.6014     4057
    23.6671     3995
    23.7327     4001
    23.7984     3954
    23.8640     4045
    23.9297     4462
    23.9953     4587
    24.0610     5027
    24.1266     9414
    24.1923    40993
    24.2580    32837
    24.3236    15578
    24.3893    44305
    24.4549    36219
    24.5206    10803
    24.5862     4723
    24.6519     4125
    24.7175     3903
    24.7832     3870
    24.8488     3698
    24.9145     3691
    24.9801     3797
    25.0458     3803
    25.1114     3697
    25.1771     3699
    25.2427     3704
    25.3084     3631
    25.3740     3628
    25.4397     3618
    25.5053     3617
    25.5710     3598
    25.6366     3432
    25.7023     3552
    25.7679     3445
    25.8336     3521
    25.8992     3511
    25.9649     3583
    26.0305     3607
    26.0962     3878
    26.1618     3874
    26.2275     3591
    26.2931     3506
    26.3588     3584
    26.4244     3489
    26.4901     3562
    26.5558     3486
    26.6214     3563
    26.6871     3456
    26.7527     3394
    26.8184     3578
    26.8840     3568
    26.9497     3679
    27.0153     3658
    27.0810     3634
    27.1466     3624
    27.2123     3615
    27.2779     3725
    27.3436     3679
    27.4092     3817
    27.4749     4433
    27.5405     5039
    27.6062     7314
    27.6718    23442
    27.7375    83943
    27.8031    51362
    27.8688    12741
    27.9344     5456
    28.0001     4201
    28.0657     3867
    28.1314     3691
    28.1970     3669
    28.2627     3894
    28.3283     3913
    28.3940     3719
    28.4596     3589
    28.5253     3633
    28.5909     3549
    28.6566     3471
    28.7222     3421
    28.7879     3517
    28.8536     3536
    28.9192     3652
    28.9849     3667
    29.0505     3939
    29.1162     4440
    29.1818     6657
    29.2475    30185
    29.3131    25055
    29.3788    16950
    29.4444    19313
    29.5101    11736
    29.5757     4870
    29.6414     3739
    29.7070     3436
    29.7727     3378
    29.8383     3353
    29.9040     3424
    29.9696     3432
    30.0353     3355
    30.1009     3266
    30.1666     3245
    30.2322     3201
    30.2979     3341
    30.3635     3311
    30.4292     3357
    30.4948     3269
    30.5605     3261
    30.6261     3227
    30.6918     3153
    30.7574     3238
    30.8231     3181
    30.8887     3157
    30.9544     3090
    31.0200     3174
    31.0857     3114
    31.1514     3097
    31.2170     3086
    31.2827     3114
    31.3483     3124
    31.4140     3175
    31.4796     2994
    31.5453     3100
    31.6109     3078
    31.6766     3066
    31.7422     3159
    31.8079     3149
    31.8735     3158
    31.9392     2927
    32.0048     3073
    32.0705     3106
    32.1361     3071
    32.2018     3224
    32.2674     3192
    32.3331     3193
    32.3987     3251
    32.4644     3389
    32.5300     3479
    32.5957     3941
    32.6613     6664
    32.7270    20542
    32.7926    13653
    32.8583     5544
    32.9239     3737
    32.9896     3706
    33.0552     3842
    33.1209     4442
    33.1865     7305
    33.2522    33576
    33.3178    22453
    33.3835    13516
    33.4492     4915
    33.5148     4360
    33.5805     5090
    33.6461    11451
    33.7118    30075
    33.7774    22601
    33.8431    20603
    33.9087    11365
    33.9744     5284
    34.0400     3619
    34.1057     3392
    34.1713     3259
    34.2370     3153
    34.3026     3156
    34.3683     3171
    34.4339     3281
    34.4996     3487
    34.5652     3781
    34.6309     9684
    34.6965    10529
    34.7622     8678
    34.8278     3846
    34.8935     3274
    34.9591     3467
    35.0248     3410
    35.0904     3242
    35.1561     3005
    35.2217     2988
    35.2874     2873
    35.3530     3033
    35.4187     2940
    35.4843     2939
    35.5500     2957
    35.6156     2805
    35.6813     2994
    35.7470     2926
    35.8126     2837
    35.8783     2912
    35.9439     2880
    36.0096     3068
    36.0752     2868
    36.1409     2993
    36.2065     2909
    36.2722     2910
    36.3378     2994
    36.4035     2924
    36.4691     3063
    36.5348     3119
    36.6004     3460
    36.6661     9183
    36.7317     6024
    36.7974     5667
    36.8630     3185
    36.9287     2920
    36.9943     2972
    37.0600     2935
    37.1256     3065
    37.1913     3240
    37.2569     3501
    37.3226     7913
    37.3882     8563
    37.4539     6724
    37.5195     3748
    37.5852     3240
    37.6508     3654
    37.7165     3420
    37.7821     3047
    37.8478     2798
    37.9134     2845
    37.9791     2791
    38.0448     2785
    38.1104     2784
    38.1761     2810
    38.2417     2784
    38.3074     2755
    38.3730     2744
    38.4387     2746
    38.5043     2684
    38.5700     2675
    38.6356     2779
    38.7013     2735
    38.7669     2741
    38.8326     2662
    38.8982     2725
    38.9639     2755
    39.0295     2692
    39.0952     2721
    39.1608     2825
    39.2265     2649
    39.2921     2680
    39.3578     2764
    39.4234     2874
    39.4891     2842
    39.5547     2878
    39.6204     3377
    39.6860     5044
    39.7517     4031
    39.8173     3805
    39.8830     3304
    39.9486     4461
    40.0143     7150
    40.0799     5455
    40.1456     4216
    40.2112     3396
    40.2769     4715
    40.3425     9633
    40.4082     5835
    40.4739     4660
    40.5395     3036
    40.6052     3023
    40.6708     2910
    40.7365     3050
    40.8021     3167
    40.8678     4078
    40.9334     8985
    40.9991     8792
    41.0647     9613
    41.1304    13267
    41.1960     9877
    41.2617    14478
    41.3273     7299
    41.3930     5616
    41.4586     3106
    41.5243     2981
    41.5899     2833
    41.6556     2785
    41.7212     2654
    41.7869     2726
    41.8525     2682
    41.9182     2743
    41.9838     2666
    42.0495     2746
    42.1151     2606
    42.1808     2711
    42.2464     2707
    42.3121     2599
    42.3777     2744
    42.4434     2626
    42.5090     2652
    42.5747     2642
    42.6404     2720
    42.7060     2631
    42.7717     2676
    42.8373     2813
    42.9030     2633
    42.9686     2597
    43.0343     2699
    43.0999     2638
    43.1656     2730
    43.2312     2772
    43.2969     2640
    43.3625     3151
    43.4282     3275
    43.4938     3089
    43.5595     2826
    43.6251     2702
    43.6908     2663
    43.7564     2657
    43.8221     2702
    43.8877     2678
    43.9534     2745
    44.0190     2720
    44.0847     2780
    44.1503     3676
    44.2160     3792
    44.2816     3389
    44.3473     3145
    44.4129     2930
    44.4786     3747
    44.5442     5693
    44.6099     3982
    44.6755     4015
    44.7412     2970
    44.8068     2790
    44.8725     2704
    44.9381     2628
    45.0038     2611
    45.0695     2629
    45.1351     2659
    45.2008     2614
    45.2664     2597
    45.3321     2714
    45.3977     2778
    45.4634     2775
    45.5290     2967
    45.5947     4034
    45.6603    12340
    45.7260     5197
    45.7916     7013
    45.8573     3249
    45.9229     2882
    45.9886     2792
    46.0542     2698
    46.1199     2816
    46.1855     2750
    46.2512     3150
    46.3168     6945
    46.3825     4576
    46.4481     5323
    46.5138     3293
    46.5794     2730
    46.6451     2752
    46.7107     2720
    46.7764     2676
    46.8420     2818
    46.9077     2865
    46.9733     3065
    47.0390     3732
    47.1046     7800
    47.1703     6001
    47.2359     5716
    47.3016     3968
    47.3673     3129
    47.4329     3120
    47.4986     3213
    47.5642     3408
    47.6299     3793
    47.6955     5482
    47.7612    16418
    47.8268    13427
    47.8925    11773
    47.9581     7511
    48.0238     3920
    48.0894     3285
    48.1551     3314
    48.2207     3340
    48.2864     4106
    48.3520    11516
    48.4177    13199
    48.4833     9628
    48.5490     8097
    48.6146     4766
    48.6803     4831
    48.7459    12736
    48.8116     7484
    48.8772     8096
    48.9429     4677
    49.0085     3340
    49.0742     3016
    49.1398     2894
    49.2055     2760
    49.2711     2831
    49.3368     2948
    49.4024     3580
    49.4681     3096
    49.5337     3391
    49.5994     3375
    49.6651     3315
    49.7307     3470
    49.7964     3530
    49.8620     4118
    49.9277    11144
    49.9933    16762
    50.0590    10337
    50.1246    10562
    50.1903     5173
    50.2559     3724
    50.3216     3422
    50.3872     3849
    50.4529     7007
    50.5185    11257
    50.5842     6529
    50.6498     7082
    50.7155     3838
    50.7811     3183
    50.8468     2996
    50.9124     2849
    50.9781     2789
    51.0437     2818
    51.1094     2933
    51.1750     2981
    51.2407     3017
    51.3063     3505
    51.3720     8157
    51.4376     5691
    51.5033     5497
    51.5689     4746
    51.6346     3736
    51.7002     3070
    51.7659     3125
    51.8315     2855
    51.8972     2749
    51.9628     2819
    52.0285     2681
    52.0942     2800
    52.1598     2769
    52.2255     2794
    52.2911     3079
    52.3568     3023
    52.4224     3456
    52.4881     7541
    52.5537    10659
    52.6194     5850
    52.6850     6836
    52.7507     3850
    52.8163     3304
    52.8820     4650
    52.9476     6018
    53.0133     4793
    53.0789     4344
    53.1446     3730
    53.2102     2812
    53.2759     2770
    53.3415     2744
    53.4072     2803
    53.4728     3168
    53.5385     4314
    53.6041     3456
    53.6698     3533
    53.7354     3123
    53.8011     2777
    53.8667     2802
    53.9324     2655
    53.9980     2532
    54.0637     2733
    54.1293     2716
    54.1950     2661
    54.2607     2786
    54.3263     2988
    54.3920     3013
    54.4576     2843
    54.5233     2879
    54.5889     2767
    54.6546     2754
    54.7202     2671
    54.7859     2697
    54.8515     2575
    54.9172     2627
    54.9828     2746
    55.0485     2854
    55.1141     2773
    55.1798     2887
    55.2454     3064
    55.3111     3546
    55.3767     7141
    55.4424    10343
    55.5080     5535
    55.5737     7452
    55.6393     4359
    55.7050     3504
    55.7706     3376
    55.8363     2952
    55.9019     3133
    55.9676     2892
    56.0332     2973
    56.0989     2962
    56.1645     3197
    56.2302     4956
    56.2958    12780
    56.3615     9624
    56.4271     8571
    56.4928     7882
    56.5584     4622
    56.6241     3430
    56.6898     3054
    56.7554     2882
    56.8211     2942
    56.8867     3106
    56.9524     3581
    57.0180     5881
    57.0837     9237
    57.1493     8873
    57.2150     7080
    57.2806     9119
    57.3463     6526
    57.4119     4353
    57.4776     4739
    57.5432     3431
    57.6089     3086
    57.6745     3058
    57.7402     3224
    57.8058     4199
    57.8715     8794
    57.9371     5620
    58.0028     5742
    58.0684     5868
    58.1341     3880
    58.1997     3548
    58.2654     3337
    58.3310     3074
    58.3967     3395
    58.4623     4106
    58.5280     7214
    58.5936     7554
    58.6593     5413
    58.7249     8870
    58.7906     9205
    58.8562     4700
    58.9219     6460
    58.9876     6027
    59.0532     9553
    59.1189     5880
    59.1845     5510
    59.2502     5450
    59.3158     3312
    59.3815     3065
    59.4471     2988
    59.5128     3087
    59.5784     4433
    59.6441     8014
    59.7097     7156
    59.7754     7231
    59.8410     9667
    59.9067    11758
    59.9723     5906
    60.0380     6560
    60.1036     4910
    60.1693     3132
    60.2349     2988
    60.3006     2905
    60.3662     3030
    60.4319     2935
    60.4975     3199
    60.5632     3691
    60.6288     6621
    60.6945    12059
    60.7601     9716
    60.8258     8192
    60.8914     8650
    60.9571     6588
    61.0227     4856
    61.0884     5607
    61.1540     4843
    61.2197     3631
    61.2854     3560
    61.3510     2885
    61.4167     2782
    61.4823     2684
    61.5480     2629
    61.6136     2625
    61.6793     2636
    61.7449     2566
    61.8106     2545
    61.8762     2396
    61.9419     2445
    62.0075     2579
    62.0732     2605
    62.1388     2545
    62.2045     2473
    62.2701     2461
    62.3358     2583
    62.4014     2606
    62.4671     2599
    62.5327     2536
    62.5984     2447
    62.6640     2519
    62.7297     2450
    62.7953     2544
    62.8610     2457
    62.9266     2437
    62.9923     2438
    63.0579     2527
    63.1236     2429
    63.1892     2515
    63.2549     2562
    63.3205     2566
    63.3862     2609
    63.4518     2815
    63.5175     3058
    63.5831     4070
    63.6488     3357
    63.7145     3065
    63.7801     3190
    63.8458     2782
    63.9114     2665
    63.9771     3133
    64.0427     4267
    64.1084     3867
    64.1740     4324
    64.2397     4054
    64.3053     3261
    64.3710     3303
    64.4366     2770
    64.5023     2543
    64.5679     2510
    64.6336     2405
    64.6992     2385
    64.7649     2476
    64.8305     2651
    64.8962     2649
    64.9618     2626
    65.0275     2737
    65.0931     2699
    65.1588     2556
    65.2244     2556
    65.2901     2550
    65.3557     2457
    65.4214     2434
    65.4870     2389
    65.5527     2499
    65.6183     2424
    65.6840     2450
    65.7496     2407
    65.8153     2399
    65.8810     2401
    65.9466     2388
    66.0123     2421
    66.0779     2333
    66.1436     2367
    66.2092     2367
    66.2749     2358
    66.3405     2454
    66.4062     2480
    66.4718     2562
    66.5375     2399
    66.6031     2419
    66.6688     2563
    66.7344     2504
    66.8001     2420
    66.8657     2433
    66.9314     2502
    66.9970     2360
    67.0627     2389
    67.1283     2317
    67.1940     2330
    67.2596     2297
    67.3253     2437
    67.3909     2393
    67.4566     2391
    67.5222     2423
    67.5879     2349
    67.6535     2438
    67.7192     2475
    67.7848     2475
    67.8505     2463
    67.9161     2501
    67.9818     2999
    68.0474     3622
    68.1131     2773
    68.1787     2996
    68.2444     3574
    68.3101     2845
    68.3757     2809
    68.4414     2789
    68.5070     2916
    68.5727     4562
    68.6383     4165
    68.7040     2886
    68.7696     3591
    68.8353     3426
    68.9009     2603
    68.9666     2583
    69.0322     2464
    69.0979     2515
    69.1635     2827
    69.2292     3900
    69.2948     3085
    69.3605     3256
    69.4261     4251
    69.4918     3651
    69.5574     3137
    69.6231     3225
    69.6887     3395
    69.7544     3795
    69.8200     5097
    69.8857     6740
    69.9513     4750
    70.0170     5389
    70.0826     5460
    70.1483     3864
    70.2139     3955
    70.2796     3224
    70.3452     3066
    70.4109     3951
    70.4765     5115
    70.5422     3690
    70.6078     3414
    70.6735     3851
    70.7392     3234
    70.8048     3451
    70.8705     4105
    70.9361     4216
    71.0018     3671
    71.0674     3529
    71.1331     4184
    71.1987     5767
    71.2644     3379
    71.3300     3041
    71.3957     3978
    71.4613     2966
    71.5270     2831
    71.5926     3099
    71.6583     4243
    71.7239     3334
    71.7896     3622
    71.8552     4144
    71.9209     3653
    71.9865     3014
    72.0522     3029
    72.1178     2930
    72.1835     2594
    72.2491     2492
    72.3148     2449
    72.3804     2591
    72.4461     2609
    72.5117     2919
    72.5774     3911
    72.6430     3829
    72.7087     2866
    72.7743     3097
    72.8400     3297
    72.9057     2755
    72.9713     2662
    73.0370     3143
    73.1026     4373
    73.1683     3801
    73.2339     3013
    73.2996     3440
    73.3652     3690
    73.4309     4040
    73.4965     3664
    73.5622     3479
    73.6278     3339
    73.6935     3394
    73.7591     3012
    73.8248     3099
    73.8904     4008
    73.9561     5413
    74.0217     5456
    74.0874     3702
    74.1530     3999
    74.2187     3808
    74.2843     3131
    74.3500     2554
    74.4156     2461
    74.4813     2355
    74.5469     2386
    74.6126     2376
    74.6782     2436
    74.7439     2368
    74.8095     2387
    74.8752     2379
    74.9408     2263
    75.0065     2394
    75.0722     2309
    75.1378     2375
    75.2035     2422
    75.2691     2415
    75.3348     2472
    75.4004     2435
    75.4661     2452
    75.5317     2523
    75.5974     2561
    75.6630     2563
    75.7287     2501
    75.7943     2480
    75.8600     2573
    75.9256     2587
    75.9913     2748
    76.0569     2856
    76.1226     3086
    76.1882     3127
    76.2539     4201
    76.3195     4871
    76.3852     3524
    76.4508     3202
    76.5165     3500
    76.5821     3234
    76.6478     2569
    76.7134     2619
    76.7791     2693
    76.8447     2974
    76.9104     3791
    76.9760     4418
    77.0417     3711
    77.1073     3001
    77.1730     3517
    77.2386     3201
    77.3043     2720
    77.3699     2550
    77.4356     2570
    77.5013     2761
    77.5669     3247
    77.6326     2779
    77.6982     2580
    77.7639     2680
    77.8295     2830
    77.8952     2568
    77.9608     2568
    78.0265     2988
    78.0921     2706
    78.1578     2579
    78.2234     2777
    78.2891     3254
    78.3547     3292
    78.4204     3433
    78.4860     3074
    78.5517     3244
    78.6173     3380
    78.6830     3974
    78.7486     4346
    78.8143     3723
    78.8799     4069
    78.9456     4293
    79.0112     3660
    79.0769     3140
    79.1425     3212
    79.2082     3028
    79.2738     2952
    79.3395     3382
    79.4051     4050
    79.4708     3266
    79.5364     2962
    79.6021     3437
    79.6677     3626
    79.7334     2950
    79.7990     2730
    79.8647     2817
    79.9304     3026
    79.9960     3253
    80.0617     4029
    80.1273     4695
    80.1930     4264
    80.2586     4662
    80.3243     6501
    80.3899     6476
    80.4556     4651
    80.5212     4526
    80.5869     5653
    80.6525     4421
    80.7182     3503
    80.7838     3804
    80.8495     3990
    80.9151     3304
    80.9808     3421
    81.0464     3537
    81.1121     3612
    81.1777     3344
    81.2434     2950
    81.3090     2930
    81.3747     2863
    81.4403     2611
    81.5060     2531
    81.5716     2450
    81.6373     2535
    81.7029     2492
    81.7686     2557
    81.8342     2739
    81.8999     2983
    81.9655     3663
    82.0312     3867
    82.0968     3413
    82.1625     3424
    82.2281     3338
    82.2938     3257
    82.3595     2941
    82.4251     3016
    82.4908     3164
    82.5564     3555
    82.6221     2785
    82.6877     2672
    82.7534     2874
    82.8190     2897
    82.8847     2541
    82.9503     2466
    83.0160     2640
    83.0816     2384
    83.1473     2451
    83.2129     2483
    83.2786     2669
    83.3442     2707
    83.4099     2744
    83.4755     2737
    83.5412     2907
    83.6068     3441
    83.6725     2898
    83.7381     2623
    83.8038     2692
    83.8694     2798
    83.9351     2602
    84.0007     2371
    84.0664     2381
    84.1320     2388
    84.1977     2497
    84.2633     2418
    84.3290     2458
    84.3946     2523
    84.4603     2530
    84.5260     2472
    84.5916     2428
    84.6573     2473
    84.7229     2452
    84.7886     2446
    84.8542     2465
    84.9199     2421
    84.9855     2442
    85.0512     2471
    85.1168     2505
    85.1825     2752
    85.2481     2891
    85.3138     3065
    85.3794     3104
    85.4451     3321
    85.5107     3921
    85.5764     4245
    85.6420     3745
    85.7077     3371
    85.7733     3390
    85.8390     3246
    85.9046     3041
    85.9703     2726
    86.0359     2648
    86.1016     2444
    86.1672     2516
    86.2329     2596
    86.2985     2829
    86.3642     3031
    86.4298     2778
    86.4955     2559
    86.5611     2605
    86.6268     2728
    86.6925     2693
    86.7581     2721
    86.8238     3264
    86.8894     3069
    86.9551     2713
    87.0207     2713
    87.0864     2858
    87.1520     2934
    87.2177     3022
    87.2833     2811
    87.3490     2935
    87.4146     3363
    87.4803     3188
    87.5459     2745
    87.6116     2833
    87.6772     2985
    87.7429     3109
    87.8085     3531
    87.8742     3266
    87.9398     2890
    88.0055     2843
    88.0711     2973
    88.1368     2949
    88.2024     2825
    88.2681     3107
    88.3337     3753
    88.3994     3858
    88.4650     3083
    88.5307     2777
    88.5963     3046
    88.6620     3121
    88.7276     2830
    88.7933     2459
    88.8589     2563
    88.9246     2605
    88.9902     3052
    89.0559     3240
    89.1216     2841
    89.1872     2564
    89.2529     2737
    89.3185     2901
    89.3842     2840
    89.4498     2599
    89.5155     2649
    89.5811     2761
    89.6468     2897
    89.7124     2749
    89.7781     3167
    89.8437     3323
    89.9094     2986
    89.9750     2892
    90.0407     2963
    90.1063     3559
    90.1720     3428
    90.2376     3288
    90.3033     3101
    90.3689     3041
    90.4346     3045
    90.5002     2948
    90.5659     2925
    90.6315     3441
    90.6972     3300
    90.7628     2790
    90.8285     2725
    90.8941     2882
    90.9598     3126
    91.0254     2912
    91.0911     3169
    91.1567     3123
    91.2224     3467
    91.2880     3636
    91.3537     3492
    91.4193     3041
    91.4850     3003
    91.5507     3300
    91.6163     3846
    91.6820     3816
    91.7476     3249
    91.8133     3051
    91.8789     2908
    91.9446     3329
    92.0102     3013
    92.0759     2920
    92.1415     2624
    92.2072     2658
    92.2728     2693
    92.3385     2837
    92.4041     2843
    92.4698     2926
    92.5354     2882
    92.6011     3065
    92.6667     3453
    92.7324     3879
    92.7980     3212
    92.8637     2828
    92.9293     2717
    92.9950     3118
    93.0606     3036
    93.1263     2629
    93.1919     2505
    93.2576     2368
    93.3232     2429
    93.3889     2372
    93.4545     2377
    93.5202     2424
    93.5858     2392
    93.6515     2373
    93.7171     2409
    93.7828     2492
    93.8484     2838
    93.9141     3192
    93.9798     2892
    94.0454     2716
    94.1111     2973
    94.1767     2887
    94.2424     2760
    94.3080     2607
    94.3737     2661
    94.4393     2679
    94.5050     2660
    94.5706     3026
    94.6363     3509
    94.7019     3310
    94.7676     2814
    94.8332     2767
    94.8989     2738
    94.9645     3023
    95.0302     2726
    95.0958     2516
    95.1615     2451
    95.2271     2505
    95.2928     2437
    95.3584     2458
    95.4241     2423
    95.4897     2392
    95.5554     2363
    95.6210     2373
    95.6867     2384
    95.7523     2361
    95.8180     2435
    95.8836     2406
    95.9493     2339
    96.0149     2469
    96.0806     2485
    96.1463     2574
    96.2119     2511
    96.2776     2455
    96.3432     2310
    96.4089     2500
    96.4745     2592
    96.5402     2607
    96.6058     2931
    96.6715     3369
    96.7371     3587
    96.8028     2950
    96.8684     2941
    96.9341     3404
    96.9997     3505
    97.0654     3180
    97.1310     2753
    97.1967     2760
    97.2623     2824
    97.3280     2821
    97.3936     2768
    97.4593     2918
    97.5249     3251
    97.5906     3431
    97.6562     3137
    97.7219     2753
    97.7875     2763
    97.8532     2916
    97.9188     2931
    97.9845     2653
    98.0501     2509
    98.1158     2410
    98.1814     2452
    98.2471     2370
    98.3128     2566
    98.3784     2505
    98.4441     2749
    98.5097     3147
    98.5754     3811
    98.6410     4100
    98.7067     3502
    98.7723     3058
    98.8380     3307
    98.9036     3871
    98.9693     4406
    99.0349     4142
    99.1006     4203
    99.1662     3946
    99.2319     3651
    99.2975     3999
    99.3632     4016
    99.4288     4015
    99.4945     3525
    99.5601     3096
    99.6258     3024
    99.6914     3033
    99.7571     2967
    99.8227     2865
    99.8884     3341
    99.9540     3079
    99.9934     2770