File: powder_X-ray_diffraction/variable-temperature_experiments/NaTaO2F2/raw_data/220°C.XY
! Initial file:   D:\ZAKARY_OUAIL\MA_THESE\Deuxième_année_de_thèse\DRX\Manips_DRX\1st_NaTaO2F2_XRK900\NaTaO2F2-Lent_220°C.xrdml
! Initial format:  58
! WAVE (A):      1.54060     1.54060     1.00000
! REM : data have been multiplied by     1.0000
! X_data : 2 Theta (deg.)
! Y_data : Intensity (arb. units)
!     X         Y
!--------------------------------------------------------------------------------
    10.0116     6604
    10.0772     6442
    10.1429     6493
    10.2086     6478
    10.2742     6411
    10.3399     6213
    10.4055     6335
    10.4712     6199
    10.5368     6352
    10.6025     6377
    10.6681     6298
    10.7338     6378
    10.7994     6561
    10.8651     6520
    10.9307     6972
    10.9964     9334
    11.0620    24271
    11.1277    49711
    11.1933    16407
    11.2590     7322
    11.3246     6471
    11.3903     6170
    11.4559     6118
    11.5216     5936
    11.5872     5983
    11.6529     5850
    11.7185     5832
    11.7842     5937
    11.8498     5838
    11.9155     5804
    11.9811     5748
    12.0468     5950
    12.1124     5816
    12.1781     5776
    12.2437     5762
    12.3094     5593
    12.3750     5564
    12.4407     5567
    12.5063     5658
    12.5720     5624
    12.6377     5531
    12.7033     5684
    12.7690     5488
    12.8346     5577
    12.9003     5367
    12.9659     5362
    13.0316     5477
    13.0972     5476
    13.1629     5288
    13.2285     5344
    13.2942     5513
    13.3598     5399
    13.4255     5251
    13.4911     5389
    13.5568     5347
    13.6224     5256
    13.6881     5274
    13.7537     5339
    13.8194     5346
    13.8850     5259
    13.9507     5195
    14.0163     5185
    14.0820     5141
    14.1476     5112
    14.2133     5078
    14.2789     4992
    14.3446     5081
    14.4102     5034
    14.4759     5104
    14.5415     4910
    14.6072     4981
    14.6728     5020
    14.7385     5009
    14.8041     5041
    14.8698     4927
    14.9355     4810
    15.0011     4962
    15.0668     4803
    15.1324     4935
    15.1981     4788
    15.2637     4848
    15.3294     4796
    15.3950     4817
    15.4607     4887
    15.5263     4711
    15.5920     4841
    15.6576     4743
    15.7233     4782
    15.7889     4802
    15.8546     4784
    15.9202     4819
    15.9859     4747
    16.0515     4723
    16.1172     4720
    16.1828     4814
    16.2485     4790
    16.3141     4777
    16.3798     4882
    16.4454     4791
    16.5111     4816
    16.5767     4755
    16.6424     4687
    16.7080     4604
    16.7737     4671
    16.8393     4493
    16.9050     4540
    16.9706     4523
    17.0363     4519
    17.1019     4558
    17.1676     4605
    17.2333     4677
    17.2989     4676
    17.3646     4559
    17.4302     4489
    17.4959     4406
    17.5615     4472
    17.6272     4415
    17.6928     4415
    17.7585     4731
    17.8241     4466
    17.8898     4310
    17.9554     4373
    18.0211     4336
    18.0867     4220
    18.1524     4338
    18.2180     4239
    18.2837     4218
    18.3493     4310
    18.4150     4128
    18.4806     4186
    18.5463     4266
    18.6119     4359
    18.6776     4483
    18.7432     4228
    18.8089     4259
    18.8745     4156
    18.9402     4290
    19.0058     4469
    19.0715     4481
    19.1371     4498
    19.2028     4597
    19.2684     4563
    19.3341     4638
    19.3997     4976
    19.4654     5620
    19.5311     8205
    19.5967    30223
    19.6624   126563
    19.7280    67667
    19.7937    13391
    19.8593     5914
    19.9250     4866
    19.9906     4599
    20.0563     4333
    20.1219     4488
    20.1876     4820
    20.2532     4496
    20.3189     4274
    20.3845     4143
    20.4502     4222
    20.5158     4157
    20.5815     4156
    20.6471     3945
    20.7128     4005
    20.7784     4068
    20.8441     4038
    20.9097     4075
    20.9754     3965
    21.0410     3970
    21.1067     3935
    21.1723     3874
    21.2380     3943
    21.3036     3955
    21.3693     3932
    21.4349     3922
    21.5006     3873
    21.5662     3894
    21.6319     3832
    21.6975     3906
    21.7632     3853
    21.8288     4150
    21.8945     4028
    21.9602     3823
    22.0258     3935
    22.0915     3809
    22.1571     3908
    22.2228     4291
    22.2884     7280
    22.3541    19124
    22.4197    11679
    22.4854     4801
    22.5510     3958
    22.6167     3860
    22.6823     3924
    22.7480     3754
    22.8136     3844
    22.8793     3751
    22.9449     3759
    23.0106     3796
    23.0762     3675
    23.1419     3747
    23.2075     3615
    23.2732     3738
    23.3388     3746
    23.4045     3804
    23.4701     3792
    23.5358     3934
    23.6014     3893
    23.6671     3981
    23.7327     3905
    23.7984     3980
    23.8640     4131
    23.9297     4328
    23.9953     4567
    24.0610     5174
    24.1266    10661
    24.1923    44217
    24.2580    32802
    24.3236    20353
    24.3893    48376
    24.4549    30336
    24.5206     7993
    24.5862     4514
    24.6519     4057
    24.7175     3677
    24.7832     3631
    24.8488     3781
    24.9145     3718
    24.9801     3957
    25.0458     3718
    25.1114     3586
    25.1771     3605
    25.2427     3588
    25.3084     3631
    25.3740     3591
    25.4397     3610
    25.5053     3573
    25.5710     3626
    25.6366     3647
    25.7023     3535
    25.7679     3444
    25.8336     3579
    25.8992     3501
    25.9649     3461
    26.0305     3455
    26.0962     3741
    26.1618     3794
    26.2275     3699
    26.2931     3446
    26.3588     3608
    26.4244     3469
    26.4901     3474
    26.5558     3489
    26.6214     3381
    26.6871     3487
    26.7527     3493
    26.8184     3691
    26.8840     3637
    26.9497     3806
    27.0153     3701
    27.0810     3710
    27.1466     3743
    27.2123     3574
    27.2779     3716
    27.3436     3683
    27.4092     3959
    27.4749     4621
    27.5405     5524
    27.6062     9111
    27.6718    46190
    27.7375    73209
    27.8031    37820
    27.8688     8596
    27.9344     4978
    28.0001     4075
    28.0657     3793
    28.1314     3683
    28.1970     3815
    28.2627     3956
    28.3283     3994
    28.3940     3779
    28.4596     3566
    28.5253     3630
    28.5909     3602
    28.6566     3560
    28.7222     3505
    28.7879     3517
    28.8536     3644
    28.9192     3534
    28.9849     3697
    29.0505     4096
    29.1162     4683
    29.1818     9201
    29.2475    33731
    29.3131    24335
    29.3788    19766
    29.4444    15605
    29.5101     8634
    29.5757     4020
    29.6414     3596
    29.7070     3399
    29.7727     3354
    29.8383     3272
    29.9040     3367
    29.9696     3427
    30.0353     3320
    30.1009     3336
    30.1666     3406
    30.2322     3207
    30.2979     3337
    30.3635     3260
    30.4292     3267
    30.4948     3320
    30.5605     3269
    30.6261     3278
    30.6918     3204
    30.7574     3154
    30.8231     3195
    30.8887     3124
    30.9544     3243
    31.0200     3168
    31.0857     3097
    31.1514     3177
    31.2170     3027
    31.2827     3125
    31.3483     3166
    31.4140     3102
    31.4796     2976
    31.5453     3177
    31.6109     3162
    31.6766     3004
    31.7422     3182
    31.8079     3145
    31.8735     3151
    31.9392     3006
    32.0048     3158
    32.0705     3122
    32.1361     3119
    32.2018     3147
    32.2674     3216
    32.3331     3274
    32.3987     3359
    32.4644     3458
    32.5300     3726
    32.5957     4780
    32.6613    19528
    32.7270    12993
    32.7926     8124
    32.8583     3852
    32.9239     3590
    32.9896     3560
    33.0552     3906
    33.1209     4592
    33.1865     9444
    33.2522    35700
    33.3178    22393
    33.3835    10094
    33.4492     4880
    33.5148     4795
    33.5805     6928
    33.6461    24562
    33.7118    24452
    33.7774    22355
    33.8431    12466
    33.9087     9321
    33.9744     4122
    34.0400     3379
    34.1057     3310
    34.1713     3198
    34.2370     3123
    34.3026     3154
    34.3683     3238
    34.4339     3377
    34.4996     3558
    34.5652     5712
    34.6309    13369
    34.6965     9044
    34.7622     4944
    34.8278     3333
    34.8935     3340
    34.9591     3524
    35.0248     3380
    35.0904     3093
    35.1561     3028
    35.2217     2987
    35.2874     2874
    35.3530     2927
    35.4187     2936
    35.4843     2950
    35.5500     2984
    35.6156     3002
    35.6813     2887
    35.7470     2942
    35.8126     3034
    35.8783     2940
    35.9439     3022
    36.0096     2939
    36.0752     3006
    36.1409     2909
    36.2065     2928
    36.2722     2852
    36.3378     2940
    36.4035     2917
    36.4691     3071
    36.5348     3164
    36.6004     3766
    36.6661     9301
    36.7317     6040
    36.7974     5569
    36.8630     3121
    36.9287     2913
    36.9943     3010
    37.0600     3105
    37.1256     3109
    37.1913     3341
    37.2569     5640
    37.3226    10170
    37.3882     6941
    37.4539     4820
    37.5195     3131
    37.5852     3513
    37.6508     3371
    37.7165     3309
    37.7821     2891
    37.8478     2765
    37.9134     2874
    37.9791     2752
    38.0448     2855
    38.1104     2743
    38.1761     2791
    38.2417     2757
    38.3074     2774
    38.3730     2768
    38.4387     2799
    38.5043     2657
    38.5700     2810
    38.6356     2798
    38.7013     2790
    38.7669     2866
    38.8326     2728
    38.8982     2741
    38.9639     2703
    39.0295     2727
    39.0952     2788
    39.1608     2622
    39.2265     2801
    39.2921     2694
    39.3578     2665
    39.4234     2713
    39.4891     2699
    39.5547     2975
    39.6204     4217
    39.6860     4527
    39.7517     4033
    39.8173     3337
    39.8830     3856
    39.9486     7885
    40.0143     5434
    40.0799     5076
    40.1456     3441
    40.2112     3397
    40.2769     5822
    40.3425     8659
    40.4082     6402
    40.4739     4197
    40.5395     3197
    40.6052     2987
    40.6708     3058
    40.7365     3174
    40.8021     3684
    40.8678     7270
    40.9334    10808
    40.9991     8033
    41.0647    13515
    41.1304     9518
    41.1960    16691
    41.2617     7720
    41.3273     6883
    41.3930     3414
    41.4586     2940
    41.5243     2824
    41.5899     2715
    41.6556     2782
    41.7212     2784
    41.7869     2788
    41.8525     2610
    41.9182     2689
    41.9838     2694
    42.0495     2576
    42.1151     2724
    42.1808     2762
    42.2464     2745
    42.3121     2631
    42.3777     2622
    42.4434     2517
    42.5090     2700
    42.5747     2718
    42.6404     2585
    42.7060     2777
    42.7717     2730
    42.8373     2667
    42.9030     2742
    42.9686     2644
    43.0343     2666
    43.0999     2732
    43.1656     2715
    43.2312     2574
    43.2969     2854
    43.3625     3405
    43.4282     3008
    43.4938     3023
    43.5595     2696
    43.6251     2720
    43.6908     2682
    43.7564     2686
    43.8221     2704
    43.8877     2713
    43.9534     2715
    44.0190     2775
    44.0847     3026
    44.1503     4225
    44.2160     3306
    44.2816     3446
    44.3473     2965
    44.4129     3509
    44.4786     5617
    44.5442     4100
    44.6099     4095
    44.6755     3026
    44.7412     2735
    44.8068     2614
    44.8725     2769
    44.9381     2683
    45.0038     2687
    45.0695     2624
    45.1351     2745
    45.2008     2633
    45.2664     2615
    45.3321     2741
    45.3977     2837
    45.4634     2868
    45.5290     3301
    45.5947     7599
    45.6603     7903
    45.7260     6361
    45.7916     4592
    45.8573     2999
    45.9229     2761
    45.9886     2788
    46.0542     2746
    46.1199     2870
    46.1855     2842
    46.2512     3317
    46.3168     7092
    46.3825     3996
    46.4481     5005
    46.5138     3112
    46.5794     2894
    46.6451     2814
    46.7107     2863
    46.7764     2912
    46.8420     2890
    46.9077     2930
    46.9733     3497
    47.0390     6978
    47.1046     7071
    47.1703     5610
    47.2359     4374
    47.3016     3080
    47.3673     3071
    47.4329     3075
    47.4986     3403
    47.5642     3550
    47.6299     4760
    47.6955    12229
    47.7612    17302
    47.8268    10502
    47.8925     9746
    47.9581     4252
    48.0238     3371
    48.0894     3127
    48.1551     3313
    48.2207     3497
    48.2864     6499
    48.3520    12668
    48.4177    10938
    48.4833     8306
    48.5490     6305
    48.6146     3920
    48.6803     8094
    48.7459    11111
    48.8116     6581
    48.8772     6778
    48.9429     3454
    49.0085     3032
    49.0742     2784
    49.1398     2851
    49.2055     2843
    49.2711     2977
    49.3368     3236
    49.4024     3488
    49.4681     3209
    49.5337     3415
    49.5994     3425
    49.6651     3227
    49.7307     3531
    49.7964     3836
    49.8620     6313
    49.9277    18693
    49.9933    10614
    50.0590    12171
    50.1246     6775
    50.1903     4260
    50.2559     3591
    50.3216     3939
    50.3872     7219
    50.4529    11157
    50.5185     6231
    50.5842     7229
    50.6498     3892
    50.7155     3129
    50.7811     2972
    50.8468     2827
    50.9124     2916
    50.9781     2851
    51.0437     2957
    51.1094     2959
    51.1750     3201
    51.2407     3663
    51.3063     8850
    51.3720     5277
    51.4376     5790
    51.5033     4382
    51.5689     3472
    51.6346     3050
    51.7002     3125
    51.7659     2847
    51.8315     2742
    51.8972     2745
    51.9628     2825
    52.0285     2750
    52.0942     2754
    52.1598     2768
    52.2255     2915
    52.2911     3031
    52.3568     3194
    52.4224     4581
    52.4881     9861
    52.5537     8027
    52.6194     6585
    52.6850     5857
    52.7507     3499
    52.8163     4159
    52.8820     5697
    52.9476     5287
    53.0133     4361
    53.0789     4141
    53.1446     2895
    53.2102     2817
    53.2759     2724
    53.3415     2745
    53.4072     2931
    53.4728     3493
    53.5385     4354
    53.6041     3185
    53.6698     3571
    53.7354     2916
    53.8011     2797
    53.8667     2667
    53.9324     2719
    53.9980     2627
    54.0637     2690
    54.1293     2675
    54.1950     2780
    54.2607     3044
    54.3263     3001
    54.3920     2936
    54.4576     2864
    54.5233     2695
    54.5889     2657
    54.6546     2690
    54.7202     2732
    54.7859     2708
    54.8515     2733
    54.9172     2682
    54.9828     2841
    55.0485     2789
    55.1141     2995
    55.1798     3136
    55.2454     3783
    55.3111     8019
    55.3767     9421
    55.4424     5699
    55.5080     7215
    55.5737     4074
    55.6393     3671
    55.7050     3281
    55.7706     2950
    55.8363     3068
    55.9019     2881
    55.9676     2930
    56.0332     3064
    56.0989     3169
    56.1645     3879
    56.2302     8681
    56.2958    12826
    56.3615     8389
    56.4271     8114
    56.4928     6307
    56.5584     3507
    56.6241     3044
    56.6898     2910
    56.7554     3084
    56.8211     3100
    56.8867     3544
    56.9524     5916
    57.0180     9288
    57.0837     8715
    57.1493     6700
    57.2150     8894
    57.2806     6618
    57.3463     4371
    57.4119     4961
    57.4776     3430
    57.5432     3281
    57.6089     2959
    57.6745     3058
    57.7402     3607
    57.8058     6433
    57.8715     7434
    57.9371     4835
    58.0028     7104
    58.0684     4435
    58.1341     3699
    58.1997     3540
    58.2654     3249
    58.3310     3298
    58.3967     4385
    58.4623     7985
    58.5280     6734
    58.5936     5701
    58.6593     9131
    58.7249     8812
    58.7906     4825
    58.8562     6728
    58.9219     7426
    58.9876     9120
    59.0532     5275
    59.1189     5932
    59.1845     4535
    59.2502     3090
    59.3158     3058
    59.3815     3012
    59.4471     3231
    59.5128     3928
    59.5784     7254
    59.6441     7335
    59.7097     5423
    59.7754     8591
    59.8410    10200
    59.9067     8414
    59.9723     5571
    60.0380     7161
    60.1036     3799
    60.1693     3172
    60.2349     2925
    60.3006     2871
    60.3662     2995
    60.4319     3045
    60.4975     3599
    60.5632     5710
    60.6288    12921
    60.6945     9947
    60.7601     7700
    60.8258     9563
    60.8914     6287
    60.9571     4836
    61.0227     5574
    61.0884     4539
    61.1540     3682
    61.2197     3840
    61.2854     2943
    61.3510     2708
    61.4167     2680
    61.4823     2686
    61.5480     2566
    61.6136     2579
    61.6793     2581
    61.7449     2632
    61.8106     2601
    61.8762     2600
    61.9419     2565
    62.0075     2459
    62.0732     2556
    62.1388     2674
    62.2045     2500
    62.2701     2488
    62.3358     2478
    62.4014     2600
    62.4671     2490
    62.5327     2566
    62.5984     2493
    62.6640     2445
    62.7297     2519
    62.7953     2544
    62.8610     2431
    62.9266     2431
    62.9923     2506
    63.0579     2445
    63.1236     2503
    63.1892     2547
    63.2549     2465
    63.3205     2585
    63.3862     2867
    63.4518     3127
    63.5175     3937
    63.5831     3354
    63.6488     3077
    63.7145     3325
    63.7801     2941
    63.8458     2795
    63.9114     3459
    63.9771     4137
    64.0427     3458
    64.1084     4131
    64.1740     4329
    64.2397     3093
    64.3053     3131
    64.3710     2912
    64.4366     2512
    64.5023     2426
    64.5679     2472
    64.6336     2438
    64.6992     2409
    64.7649     2698
    64.8305     2751
    64.8962     2635
    64.9618     2792
    65.0275     2630
    65.0931     2519
    65.1588     2511
    65.2244     2442
    65.2901     2421
    65.3557     2409
    65.4214     2456
    65.4870     2380
    65.5527     2434
    65.6183     2436
    65.6840     2436
    65.7496     2473
    65.8153     2392
    65.8810     2426
    65.9466     2373
    66.0123     2427
    66.0779     2401
    66.1436     2448
    66.2092     2385
    66.2749     2487
    66.3405     2478
    66.4062     2575
    66.4718     2502
    66.5375     2415
    66.6031     2396
    66.6688     2616
    66.7344     2392
    66.8001     2444
    66.8657     2506
    66.9314     2408
    66.9970     2420
    67.0627     2455
    67.1283     2366
    67.1940     2369
    67.2596     2383
    67.3253     2378
    67.3909     2476
    67.4566     2560
    67.5222     2451
    67.5879     2483
    67.6535     2455
    67.7192     2496
    67.7848     2508
    67.8505     2473
    67.9161     2459
    67.9818     3234
    68.0474     3459
    68.1131     2868
    68.1787     3482
    68.2444     3315
    68.3101     2715
    68.3757     2945
    68.4414     3745
    68.5070     5220
    68.5727     2992
    68.6383     3112
    68.7040     3698
    68.7696     2766
    68.8353     2455
    68.9009     2491
    68.9666     2587
    69.0322     2518
    69.0979     2733
    69.1635     3196
    69.2292     4142
    69.2948     3705
    69.3605     4045
    69.4261     3666
    69.4918     3315
    69.5574     3305
    69.6231     3403
    69.6887     3430
    69.7544     4221
    69.8200     6976
    69.8857     5607
    69.9513     4952
    70.0170     5124
    70.0826     4317
    70.1483     3954
    70.2139     3065
    70.2796     2927
    70.3452     3298
    70.4109     4537
    70.4765     4784
    70.5422     3281
    70.6078     3621
    70.6735     4144
    70.7392     3986
    70.8048     4433
    70.8705     4061
    70.9361     3531
    71.0018     3740
    71.0674     4007
    71.1331     5474
    71.1987     3299
    71.2644     3081
    71.3300     3879
    71.3957     3131
    71.4613     2804
    71.5270     2878
    71.5926     3773
    71.6583     4121
    71.7239     3781
    71.7896     4127
    71.8552     3553
    71.9209     3107
    71.9865     2948
    72.0522     2707
    72.1178     2606
    72.1835     2598
    72.2491     2522
    72.3148     2565
    72.3804     2641
    72.4461     3182
    72.5117     4141
    72.5774     3244
    72.6430     2999
    72.7087     3276
    72.7743     3040
    72.8400     2715
    72.9057     2746
    72.9713     3434
    73.0370     4607
    73.1026     3324
    73.1683     3044
    73.2339     3724
    73.2996     3969
    73.3652     3885
    73.4309     3389
    73.4965     3584
    73.5622     3592
    73.6278     3122
    73.6935     3049
    73.7591     3727
    73.8248     5508
    73.8904     5585
    73.9561     4120
    74.0217     3817
    74.0874     4007
    74.1530     3501
    74.2187     2734
    74.2843     2552
    74.3500     2494
    74.4156     2471
    74.4813     2345
    74.5469     2424
    74.6126     2450
    74.6782     2377
    74.7439     2433
    74.8095     2365
    74.8752     2302
    74.9408     2420
    75.0065     2416
    75.0722     2446
    75.1378     2383
    75.2035     2412
    75.2691     2440
    75.3348     2403
    75.4004     2458
    75.4661     2541
    75.5317     2529
    75.5974     2521
    75.6630     2574
    75.7287     2498
    75.7943     2535
    75.8600     2543
    75.9256     2762
    75.9913     2863
    76.0569     3004
    76.1226     3356
    76.1882     4449
    76.2539     4764
    76.3195     3452
    76.3852     3352
    76.4508     3631
    76.5165     3140
    76.5821     2725
    76.6478     2631
    76.7134     2893
    76.7791     3384
    76.8447     4390
    76.9104     4027
    76.9760     3207
    77.0417     3416
    77.1073     3406
    77.1730     2876
    77.2386     2595
    77.3043     2489
    77.3699     2608
    77.4356     2652
    77.5013     3044
    77.5669     2990
    77.6326     2671
    77.6982     2721
    77.7639     2789
    77.8295     2591
    77.8952     2647
    77.9608     2774
    78.0265     2927
    78.0921     2655
    78.1578     2634
    78.2234     3158
    78.2891     3438
    78.3547     3444
    78.4204     3239
    78.4860     3199
    78.5517     3647
    78.6173     4591
    78.6830     4118
    78.7486     3990
    78.8143     4226
    78.8799     3685
    78.9456     3246
    79.0112     3235
    79.0769     3088
    79.1425     2781
    79.2082     2838
    79.2738     3357
    79.3395     4049
    79.4051     3222
    79.4708     3141
    79.5364     3472
    79.6021     3349
    79.6677     2853
    79.7334     2911
    79.7990     2928
    79.8647     3123
    79.9304     3574
    79.9960     4704
    80.0617     4439
    80.1273     3693
    80.1930     4527
    80.2586     6266
    80.3243     6816
    80.3899     4536
    80.4556     4527
    80.5212     5498
    80.5869     4801
    80.6525     3906
    80.7182     4002
    80.7838     3478
    80.8495     3292
    80.9151     3606
    80.9808     3606
    81.0464     3386
    81.1121     3080
    81.1777     2865
    81.2434     2939
    81.3090     2899
    81.3747     2641
    81.4403     2531
    81.5060     2434
    81.5716     2458
    81.6373     2617
    81.7029     2664
    81.7686     2986
    81.8342     3505
    81.8999     3608
    81.9655     3392
    82.0312     3190
    82.0968     3563
    82.1625     3405
    82.2281     2888
    82.2938     2797
    82.3595     2804
    82.4251     3047
    82.4908     3916
    82.5564     2903
    82.6221     2616
    82.6877     2730
    82.7534     3091
    82.8190     2627
    82.8847     2550
    82.9503     2515
    83.0160     2473
    83.0816     2486
    83.1473     2703
    83.2129     2754
    83.2786     2756
    83.3442     2714
    83.4099     2799
    83.4755     3326
    83.5412     3228
    83.6068     2781
    83.6725     2639
    83.7381     2802
    83.8038     2706
    83.8694     2501
    83.9351     2453
    84.0007     2408
    84.0664     2346
    84.1320     2388
    84.1977     2360
    84.2633     2390
    84.3290     2663
    84.3946     2565
    84.4603     2725
    84.5260     2358
    84.5916     2493
    84.6573     2532
    84.7229     2506
    84.7886     2511
    84.8542     2470
    84.9199     2525
    84.9855     2536
    85.0512     2570
    85.1168     2862
    85.1825     2958
    85.2481     3201
    85.3138     3228
    85.3794     3502
    85.4451     4179
    85.5107     4301
    85.5764     3407
    85.6420     3415
    85.7077     3331
    85.7733     3273
    85.8390     2805
    85.9046     2677
    85.9703     2563
    86.0359     2557
    86.1016     2521
    86.1672     2880
    86.2329     3042
    86.2985     2706
    86.3642     2636
    86.4298     2657
    86.4955     2738
    86.5611     2713
    86.6268     2727
    86.6925     3173
    86.7581     3199
    86.8238     2755
    86.8894     2668
    86.9551     2770
    87.0207     2968
    87.0864     2791
    87.1520     2984
    87.2177     3267
    87.2833     3397
    87.3490     2989
    87.4146     2786
    87.4803     2876
    87.5459     3032
    87.6116     2892
    87.6772     3128
    87.7429     3674
    87.8085     3049
    87.8742     2842
    87.9398     2873
    88.0055     3046
    88.0711     2920
    88.1368     2985
    88.2024     3650
    88.2681     3734
    88.3337     3200
    88.3994     2937
    88.4650     3057
    88.5307     3129
    88.5963     2863
    88.6620     2642
    88.7276     2536
    88.7933     2548
    88.8589     2522
    88.9246     3056
    88.9902     3340
    89.0559     2804
    89.1216     2724
    89.1872     2752
    89.2529     2858
    89.3185     2777
    89.3842     2716
    89.4498     2940
    89.5155     2785
    89.5811     2619
    89.6468     2646
    89.7124     2956
    89.7781     3602
    89.8437     3217
    89.9094     3010
    89.9750     3031
    90.0407     3583
    90.1063     3856
    90.1720     3273
    90.2376     3002
    90.3033     3045
    90.3689     3082
    90.4346     3125
    90.5002     3393
    90.5659     2983
    90.6315     2792
    90.6972     2915
    90.7628     3033
    90.8285     2982
    90.8941     3089
    90.9598     3084
    91.0254     2805
    91.0911     2968
    91.1567     3445
    91.2224     3774
    91.2880     3528
    91.3537     2948
    91.4193     2966
    91.4850     3285
    91.5507     3807
    91.6163     4021
    91.6820     3175
    91.7476     2862
    91.8133     2888
    91.8789     3301
    91.9446     3162
    92.0102     2841
    92.0759     2675
    92.1415     2728
    92.2072     2852
    92.2728     3039
    92.3385     2803
    92.4041     2967
    92.4698     3111
    92.5354     3340
    92.6011     3866
    92.6667     3221
    92.7324     2835
    92.7980     2808
    92.8637     3013
    92.9293     2915
    92.9950     2697
    93.0606     2564
    93.1263     2442
    93.1919     2339
    93.2576     2429
    93.3232     2404
    93.3889     2473
    93.4545     2476
    93.5202     2430
    93.5858     2592
    93.6515     2753
    93.7171     3133
    93.7828     2967
    93.8484     2778
    93.9141     2860
    93.9798     2982
    94.0454     2921
    94.1111     2660
    94.1767     2556
    94.2424     2699
    94.3080     2659
    94.3737     2664
    94.4393     2994
    94.5050     3233
    94.5706     3321
    94.6363     2817
    94.7019     2740
    94.7676     2744
    94.8332     2853
    94.8989     2841
    94.9645     2570
    95.0302     2478
    95.0958     2457
    95.1615     2482
    95.2271     2447
    95.2928     2397
    95.3584     2373
    95.4241     2326
    95.4897     2310
    95.5554     2433
    95.6210     2360
    95.6867     2372
    95.7523     2336
    95.8180     2409
    95.8836     2417
    95.9493     2523
    96.0149     2491
    96.0806     2421
    96.1463     2501
    96.2119     2467
    96.2776     2510
    96.3432     2481
    96.4089     2738
    96.4745     2955
    96.5402     3657
    96.6058     3372
    96.6715     3002
    96.7371     3184
    96.8028     3595
    96.8684     3439
    96.9341     2963
    96.9997     2816
    97.0654     2891
    97.1310     2721
    97.1967     2550
    97.2623     2626
    97.3280     2701
    97.3936     3043
    97.4593     3421
    97.5249     3446
    97.5906     2805
    97.6562     2725
    97.7219     2781
    97.7875     2996
    97.8532     2879
    97.9188     2603
    97.9845     2520
    98.0501     2521
    98.1158     2505
    98.1814     2480
    98.2471     2611
    98.3128     2783
    98.3784     3005
    98.4441     3450
    98.5097     3766
    98.5754     3700
    98.6410     3243
    98.7067     3132
    98.7723     3346
    98.8380     3723
    98.9036     4136
    98.9693     4007
    99.0349     4322
    99.1006     4420
    99.1662     4182
    99.2319     4102
    99.2975     3781
    99.3632     3616
    99.4288     3458
    99.4945     3177
    99.5601     3112
    99.6258     2853
    99.6914     2835
    99.7571     2820
    99.8227     3330
    99.8884     2964
    99.9540     2808
    99.9934     2744