File: powder_X-ray_diffraction/variable-temperature_experiments/NaTaO2F2/raw_data/230°C.XY
! Initial file:   D:\ZAKARY_OUAIL\MA_THESE\Deuxième_année_de_thèse\DRX\Manips_DRX\1st_NaTaO2F2_XRK900\NaTaO2F2-Lent_230°C.xrdml
! Initial format:  58
! WAVE (A):      1.54060     1.54060     1.00000
! REM : data have been multiplied by     1.0000
! X_data : 2 Theta (deg.)
! Y_data : Intensity (arb. units)
!     X         Y
!--------------------------------------------------------------------------------
    10.0116     6462
    10.0772     6376
    10.1429     6373
    10.2086     6299
    10.2742     6484
    10.3399     6219
    10.4055     6383
    10.4712     6106
    10.5368     6118
    10.6025     6186
    10.6681     6368
    10.7338     6240
    10.7994     6491
    10.8651     6489
    10.9307     7073
    10.9964     9422
    11.0620    24607
    11.1277    49505
    11.1933    15926
    11.2590     7112
    11.3246     6326
    11.3903     6223
    11.4559     6011
    11.5216     6097
    11.5872     5838
    11.6529     5967
    11.7185     5759
    11.7842     5897
    11.8498     5801
    11.9155     5785
    11.9811     5726
    12.0468     5861
    12.1124     5689
    12.1781     5670
    12.2437     5569
    12.3094     5804
    12.3750     5613
    12.4407     5648
    12.5063     5443
    12.5720     5546
    12.6377     5505
    12.7033     5590
    12.7690     5516
    12.8346     5440
    12.9003     5443
    12.9659     5458
    13.0316     5472
    13.0972     5528
    13.1629     5243
    13.2285     5563
    13.2942     5342
    13.3598     5200
    13.4255     5276
    13.4911     5373
    13.5568     5281
    13.6224     5161
    13.6881     5443
    13.7537     5207
    13.8194     5138
    13.8850     5100
    13.9507     5212
    14.0163     5105
    14.0820     5062
    14.1476     5203
    14.2133     5099
    14.2789     4974
    14.3446     5042
    14.4102     5091
    14.4759     5051
    14.5415     4981
    14.6072     5053
    14.6728     4934
    14.7385     4924
    14.8041     4842
    14.8698     4828
    14.9355     4777
    15.0011     4842
    15.0668     4938
    15.1324     4887
    15.1981     4888
    15.2637     4752
    15.3294     4883
    15.3950     4796
    15.4607     4879
    15.5263     4801
    15.5920     4776
    15.6576     4735
    15.7233     4726
    15.7889     4726
    15.8546     4705
    15.9202     4639
    15.9859     4682
    16.0515     4772
    16.1172     4790
    16.1828     4824
    16.2485     4941
    16.3141     4779
    16.3798     4743
    16.4454     4857
    16.5111     4773
    16.5767     4697
    16.6424     4457
    16.7080     4571
    16.7737     4607
    16.8393     4691
    16.9050     4674
    16.9706     4444
    17.0363     4463
    17.1019     4662
    17.1676     4555
    17.2333     4755
    17.2989     4513
    17.3646     4457
    17.4302     4504
    17.4959     4448
    17.5615     4431
    17.6272     4520
    17.6928     4657
    17.7585     4692
    17.8241     4429
    17.8898     4238
    17.9554     4284
    18.0211     4239
    18.0867     4286
    18.1524     4299
    18.2180     4327
    18.2837     4265
    18.3493     4239
    18.4150     4374
    18.4806     4221
    18.5463     4180
    18.6119     4293
    18.6776     4268
    18.7432     4270
    18.8089     4131
    18.8745     4114
    18.9402     4214
    19.0058     4521
    19.0715     4614
    19.1371     4596
    19.2028     4588
    19.2684     4618
    19.3341     4639
    19.3997     5050
    19.4654     5765
    19.5311     8649
    19.5967    34815
    19.6624   126455
    19.7280    61594
    19.7937    12010
    19.8593     5964
    19.9250     4894
    19.9906     4579
    20.0563     4605
    20.1219     4558
    20.1876     4674
    20.2532     4382
    20.3189     4159
    20.3845     4219
    20.4502     4089
    20.5158     4083
    20.5815     4097
    20.6471     4091
    20.7128     4045
    20.7784     4053
    20.8441     4068
    20.9097     4127
    20.9754     3965
    21.0410     3886
    21.1067     3896
    21.1723     3839
    21.2380     3843
    21.3036     3986
    21.3693     3863
    21.4349     3877
    21.5006     3937
    21.5662     3826
    21.6319     3937
    21.6975     3912
    21.7632     3928
    21.8288     4256
    21.8945     3927
    21.9602     3979
    22.0258     3911
    22.0915     3862
    22.1571     4028
    22.2228     4423
    22.2884     7594
    22.3541    19271
    22.4197    11165
    22.4854     4538
    22.5510     4032
    22.6167     3902
    22.6823     3838
    22.7480     3798
    22.8136     3805
    22.8793     3708
    22.9449     3664
    23.0106     3729
    23.0762     3649
    23.1419     3645
    23.2075     3667
    23.2732     3628
    23.3388     3805
    23.4045     3726
    23.4701     3774
    23.5358     3877
    23.6014     3880
    23.6671     3907
    23.7327     3827
    23.7984     3980
    23.8640     3905
    23.9297     4386
    23.9953     4525
    24.0610     5185
    24.1266    11212
    24.1923    43954
    24.2580    32016
    24.3236    22488
    24.3893    49839
    24.4549    27935
    24.5206     7171
    24.5862     4475
    24.6519     3933
    24.7175     3830
    24.7832     3744
    24.8488     3656
    24.9145     3742
    24.9801     3942
    25.0458     3777
    25.1114     3664
    25.1771     3576
    25.2427     3612
    25.3084     3591
    25.3740     3621
    25.4397     3601
    25.5053     3586
    25.5710     3483
    25.6366     3402
    25.7023     3496
    25.7679     3483
    25.8336     3533
    25.8992     3409
    25.9649     3456
    26.0305     3561
    26.0962     3833
    26.1618     3904
    26.2275     3714
    26.2931     3477
    26.3588     3544
    26.4244     3356
    26.4901     3553
    26.5558     3469
    26.6214     3549
    26.6871     3477
    26.7527     3608
    26.8184     3667
    26.8840     3650
    26.9497     3745
    27.0153     3620
    27.0810     3663
    27.1466     3673
    27.2123     3689
    27.2779     3727
    27.3436     3870
    27.4092     4025
    27.4749     4620
    27.5405     5738
    27.6062     9865
    27.6718    53198
    27.7375    70446
    27.8031    33794
    27.8688     7742
    27.9344     4647
    28.0001     4122
    28.0657     3697
    28.1314     3622
    28.1970     3678
    28.2627     3946
    28.3283     3744
    28.3940     3562
    28.4596     3592
    28.5253     3524
    28.5909     3459
    28.6566     3540
    28.7222     3519
    28.7879     3492
    28.8536     3487
    28.9192     3600
    28.9849     3810
    29.0505     4121
    29.1162     4624
    29.1818    10400
    29.2475    33126
    29.3131    23498
    29.3788    20272
    29.4444    15069
    29.5101     7713
    29.5757     4006
    29.6414     3608
    29.7070     3473
    29.7727     3507
    29.8383     3519
    29.9040     3396
    29.9696     3456
    30.0353     3242
    30.1009     3290
    30.1666     3408
    30.2322     3329
    30.2979     3368
    30.3635     3303
    30.4292     3186
    30.4948     3226
    30.5605     3170
    30.6261     3175
    30.6918     3079
    30.7574     3177
    30.8231     3249
    30.8887     3285
    30.9544     3197
    31.0200     3151
    31.0857     3179
    31.1514     3125
    31.2170     3205
    31.2827     3102
    31.3483     3173
    31.4140     2986
    31.4796     3107
    31.5453     3136
    31.6109     3155
    31.6766     3044
    31.7422     3025
    31.8079     3091
    31.8735     3135
    31.9392     3047
    32.0048     3201
    32.0705     3134
    32.1361     3201
    32.2018     3175
    32.2674     3226
    32.3331     3221
    32.3987     3262
    32.4644     3365
    32.5300     3886
    32.5957     5196
    32.6613    21521
    32.7270    13328
    32.7926     6731
    32.8583     3879
    32.9239     3683
    32.9896     3648
    33.0552     3803
    33.1209     4669
    33.1865    10290
    33.2522    36052
    33.3178    21972
    33.3835     9592
    33.4492     4859
    33.5148     4818
    33.5805     8075
    33.6461    27992
    33.7118    22705
    33.7774    22049
    33.8431    11911
    33.9087     8640
    33.9744     3989
    34.0400     3406
    34.1057     3211
    34.1713     3185
    34.2370     3270
    34.3026     3312
    34.3683     3285
    34.4339     3411
    34.4996     3603
    34.5652     7302
    34.6309    12288
    34.6965     9344
    34.7622     4417
    34.8278     3341
    34.8935     3395
    34.9591     3506
    35.0248     3302
    35.0904     3066
    35.1561     3080
    35.2217     3039
    35.2874     3082
    35.3530     2871
    35.4187     3020
    35.4843     3064
    35.5500     3055
    35.6156     2971
    35.6813     2869
    35.7470     3026
    35.8126     2884
    35.8783     3025
    35.9439     2886
    36.0096     3018
    36.0752     3109
    36.1409     2985
    36.2065     2909
    36.2722     3029
    36.3378     2938
    36.4035     2910
    36.4691     3024
    36.5348     3116
    36.6004     3679
    36.6661     9490
    36.7317     5884
    36.7974     5349
    36.8630     3197
    36.9287     3064
    36.9943     2951
    37.0600     3136
    37.1256     3174
    37.1913     3372
    37.2569     6607
    37.3226     9262
    37.3882     7098
    37.4539     4329
    37.5195     3211
    37.5852     3583
    37.6508     3301
    37.7165     3140
    37.7821     2908
    37.8478     2868
    37.9134     2759
    37.9791     2811
    38.0448     2830
    38.1104     2818
    38.1761     2856
    38.2417     2816
    38.3074     2786
    38.3730     2758
    38.4387     2790
    38.5043     2708
    38.5700     2767
    38.6356     2805
    38.7013     2793
    38.7669     2716
    38.8326     2631
    38.8982     2735
    38.9639     2752
    39.0295     2791
    39.0952     2698
    39.1608     2710
    39.2265     2842
    39.2921     2800
    39.3578     2852
    39.4234     2766
    39.4891     2841
    39.5547     3013
    39.6204     4570
    39.6860     4347
    39.7517     4061
    39.8173     3293
    39.8830     4173
    39.9486     7889
    40.0143     5237
    40.0799     4462
    40.1456     3278
    40.2112     3362
    40.2769     6170
    40.3425     8268
    40.4082     6706
    40.4739     3974
    40.5395     3019
    40.6052     3064
    40.6708     2996
    40.7365     3236
    40.8021     3804
    40.8678     8440
    40.9334     9163
    40.9991     8616
    41.0647    13280
    41.1304     9674
    41.1960    15963
    41.2617     7536
    41.3273     5898
    41.3930     3170
    41.4586     2903
    41.5243     2794
    41.5899     2708
    41.6556     2798
    41.7212     2764
    41.7869     2714
    41.8525     2745
    41.9182     2614
    41.9838     2712
    42.0495     2670
    42.1151     2763
    42.1808     2609
    42.2464     2733
    42.3121     2677
    42.3777     2710
    42.4434     2662
    42.5090     2626
    42.5747     2628
    42.6404     2728
    42.7060     2760
    42.7717     2666
    42.8373     2741
    42.9030     2759
    42.9686     2663
    43.0343     2659
    43.0999     2708
    43.1656     2737
    43.2312     2657
    43.2969     2893
    43.3625     3315
    43.4282     3040
    43.4938     3040
    43.5595     2615
    43.6251     2659
    43.6908     2614
    43.7564     2714
    43.8221     2641
    43.8877     2640
    43.9534     2723
    44.0190     2584
    44.0847     3110
    44.1503     4174
    44.2160     3299
    44.2816     3374
    44.3473     3005
    44.4129     3836
    44.4786     5361
    44.5442     4057
    44.6099     3877
    44.6755     2886
    44.7412     2831
    44.8068     2706
    44.8725     2589
    44.9381     2641
    45.0038     2714
    45.0695     2712
    45.1351     2612
    45.2008     2662
    45.2664     2676
    45.3321     2779
    45.3977     2878
    45.4634     2949
    45.5290     3326
    45.5947     8890
    45.6603     7013
    45.7260     7073
    45.7916     4182
    45.8573     2965
    45.9229     2728
    45.9886     2681
    46.0542     2933
    46.1199     2859
    46.1855     2877
    46.2512     3395
    46.3168     7147
    46.3825     4103
    46.4481     4883
    46.5138     3124
    46.5794     2859
    46.6451     2805
    46.7107     2779
    46.7764     2788
    46.8420     2875
    46.9077     3025
    46.9733     3926
    47.0390     7980
    47.1046     5915
    47.1703     5815
    47.2359     3959
    47.3016     3048
    47.3673     3045
    47.4329     3196
    47.4986     3373
    47.5642     3733
    47.6299     5401
    47.6955    15609
    47.7612    14904
    47.8268    11396
    47.8925     8078
    47.9581     4005
    48.0238     3282
    48.0894     3130
    48.1551     3221
    48.2207     3559
    48.2864     7913
    48.3520    12962
    48.4177    10847
    48.4833     8620
    48.5490     5764
    48.6146     4337
    48.6803     9642
    48.7459     9599
    48.8116     7129
    48.8772     6104
    48.9429     3402
    49.0085     3118
    49.0742     3025
    49.1398     2859
    49.2055     2832
    49.2711     2975
    49.3368     3259
    49.4024     3432
    49.4681     3225
    49.5337     3587
    49.5994     3489
    49.6651     3303
    49.7307     3592
    49.7964     3877
    49.8620     7167
    49.9277    18893
    49.9933     9977
    50.0590    12191
    50.1246     6029
    50.1903     4020
    50.2559     3507
    50.3216     4299
    50.3872     8792
    50.4529     9547
    50.5185     6689
    50.5842     6317
    50.6498     3486
    50.7155     3135
    50.7811     3033
    50.8468     2882
    50.9124     2946
    50.9781     2772
    51.0437     2916
    51.1094     2924
    51.1750     3077
    51.2407     4460
    51.3063     9050
    51.3720     4531
    51.4376     6032
    51.5033     4067
    51.5689     3339
    51.6346     3060
    51.7002     3018
    51.7659     2895
    51.8315     2822
    51.8972     2795
    51.9628     2793
    52.0285     2661
    52.0942     2808
    52.1598     2778
    52.2255     2839
    52.2911     3021
    52.3568     3217
    52.4224     4718
    52.4881    10339
    52.5537     7450
    52.6194     6760
    52.6850     5420
    52.7507     3528
    52.8163     4712
    52.8820     5925
    52.9476     5106
    53.0133     4432
    53.0789     3802
    53.1446     2923
    53.2102     2833
    53.2759     2843
    53.3415     2634
    53.4072     2881
    53.4728     3524
    53.5385     4225
    53.6041     3249
    53.6698     3561
    53.7354     2867
    53.8011     2854
    53.8667     2717
    53.9324     2692
    53.9980     2691
    54.0637     2696
    54.1293     2763
    54.1950     2802
    54.2607     3112
    54.3263     3008
    54.3920     2885
    54.4576     2824
    54.5233     2743
    54.5889     2721
    54.6546     2582
    54.7202     2656
    54.7859     2699
    54.8515     2773
    54.9172     2731
    54.9828     2831
    55.0485     2799
    55.1141     3062
    55.1798     3210
    55.2454     4370
    55.3111    10335
    55.3767     7399
    55.4424     6187
    55.5080     6308
    55.5737     3697
    55.6393     3537
    55.7050     3103
    55.7706     3036
    55.8363     2916
    55.9019     2915
    55.9676     3019
    56.0332     3101
    56.0989     3281
    56.1645     4394
    56.2302     9055
    56.2958    13026
    56.3615     7876
    56.4271     7959
    56.4928     5768
    56.5584     3537
    56.6241     3100
    56.6898     3039
    56.7554     3101
    56.8211     3189
    56.8867     3949
    56.9524     7140
    57.0180     9363
    57.0837     7691
    57.1493     7012
    57.2150     9099
    57.2806     5687
    57.3463     4453
    57.4119     4707
    57.4776     3407
    57.5432     3041
    57.6089     3102
    57.6745     3104
    57.7402     3781
    57.8058     7393
    57.8715     6898
    57.9371     5184
    58.0028     6983
    58.0684     4165
    58.1341     3650
    58.1997     3425
    58.2654     3198
    58.3310     3565
    58.3967     5129
    58.4623     8765
    58.5280     5589
    58.5936     6316
    58.6593     9959
    58.7249     6947
    58.7906     5050
    58.8562     7227
    58.9219     8630
    58.9876     7801
    59.0532     5084
    59.1189     6127
    59.1845     4089
    59.2502     3194
    59.3158     3066
    59.3815     3089
    59.4471     3148
    59.5128     4550
    59.5784     7975
    59.6441     6522
    59.7097     5767
    59.7754     8578
    59.8410    10471
    59.9067     7906
    59.9723     5754
    60.0380     6901
    60.1036     3714
    60.1693     3052
    60.2349     3024
    60.3006     2850
    60.3662     3068
    60.4319     3154
    60.4975     3757
    60.5632     6847
    60.6288    13812
    60.6945     8447
    60.7601     8632
    60.8258     8963
    60.8914     5731
    60.9571     5056
    61.0227     5632
    61.0884     4021
    61.1540     3692
    61.2197     3598
    61.2854     2754
    61.3510     2671
    61.4167     2629
    61.4823     2542
    61.5480     2576
    61.6136     2629
    61.6793     2532
    61.7449     2619
    61.8106     2638
    61.8762     2583
    61.9419     2623
    62.0075     2509
    62.0732     2518
    62.1388     2567
    62.2045     2572
    62.2701     2597
    62.3358     2574
    62.4014     2612
    62.4671     2591
    62.5327     2513
    62.5984     2482
    62.6640     2549
    62.7297     2616
    62.7953     2626
    62.8610     2457
    62.9266     2432
    62.9923     2444
    63.0579     2525
    63.1236     2453
    63.1892     2597
    63.2549     2633
    63.3205     2662
    63.3862     2862
    63.4518     3250
    63.5175     4166
    63.5831     3205
    63.6488     3160
    63.7145     3296
    63.7801     2879
    63.8458     2873
    63.9114     3904
    63.9771     3794
    64.0427     3409
    64.1084     4403
    64.1740     3986
    64.2397     3018
    64.3053     3148
    64.3710     2785
    64.4366     2500
    64.5023     2510
    64.5679     2501
    64.6336     2494
    64.6992     2569
    64.7649     2629
    64.8305     2737
    64.8962     2804
    64.9618     2794
    65.0275     2630
    65.0931     2541
    65.1588     2519
    65.2244     2406
    65.2901     2335
    65.3557     2436
    65.4214     2401
    65.4870     2405
    65.5527     2360
    65.6183     2448
    65.6840     2395
    65.7496     2513
    65.8153     2468
    65.8810     2403
    65.9466     2437
    66.0123     2300
    66.0779     2400
    66.1436     2460
    66.2092     2362
    66.2749     2510
    66.3405     2542
    66.4062     2427
    66.4718     2430
    66.5375     2439
    66.6031     2437
    66.6688     2707
    66.7344     2484
    66.8001     2478
    66.8657     2434
    66.9314     2516
    66.9970     2475
    67.0627     2317
    67.1283     2456
    67.1940     2417
    67.2596     2490
    67.3253     2428
    67.3909     2456
    67.4566     2477
    67.5222     2439
    67.5879     2539
    67.6535     2409
    67.7192     2450
    67.7848     2469
    67.8505     2498
    67.9161     2590
    67.9818     3392
    68.0474     3420
    68.1131     2908
    68.1787     3434
    68.2444     3374
    68.3101     2905
    68.3757     3006
    68.4414     4805
    68.5070     3975
    68.5727     2868
    68.6383     3659
    68.7040     3169
    68.7696     2536
    68.8353     2483
    68.9009     2568
    68.9666     2520
    69.0322     2582
    69.0979     2664
    69.1635     3268
    69.2292     4107
    69.2948     3883
    69.3605     4059
    69.4261     3540
    69.4918     3406
    69.5574     3378
    69.6231     3561
    69.6887     3336
    69.7544     4513
    69.8200     7316
    69.8857     5604
    69.9513     4948
    70.0170     5306
    70.0826     4471
    70.1483     3495
    70.2139     3004
    70.2796     3023
    70.3452     3280
    70.4109     4738
    70.4765     4752
    70.5422     3253
    70.6078     3901
    70.6735     4265
    70.7392     4356
    70.8048     4357
    70.8705     3763
    70.9361     3452
    71.0018     3693
    71.0674     4093
    71.1331     5039
    71.1987     3077
    71.2644     3091
    71.3300     3846
    71.3957     2918
    71.4613     2831
    71.5270     2978
    71.5926     4110
    71.6583     4177
    71.7239     3913
    71.7896     3919
    71.8552     3465
    71.9209     3137
    71.9865     2824
    72.0522     2722
    72.1178     2549
    72.1835     2526
    72.2491     2578
    72.3148     2673
    72.3804     2838
    72.4461     3600
    72.5117     4038
    72.5774     3050
    72.6430     3094
    72.7087     3331
    72.7743     2814
    72.8400     2716
    72.9057     2889
    72.9713     3781
    73.0370     4287
    73.1026     3129
    73.1683     3258
    73.2339     3927
    73.2996     3779
    73.3652     3681
    73.4309     3238
    73.4965     3621
    73.5622     3493
    73.6278     3042
    73.6935     3283
    73.7591     4494
    73.8248     5587
    73.8904     5277
    73.9561     3822
    74.0217     4028
    74.0874     3863
    74.1530     3043
    74.2187     2650
    74.2843     2480
    74.3500     2479
    74.4156     2459
    74.4813     2428
    74.5469     2413
    74.6126     2485
    74.6782     2305
    74.7439     2392
    74.8095     2370
    74.8752     2399
    74.9408     2383
    75.0065     2445
    75.0722     2414
    75.1378     2467
    75.2035     2487
    75.2691     2467
    75.3348     2494
    75.4004     2597
    75.4661     2662
    75.5317     2576
    75.5974     2482
    75.6630     2546
    75.7287     2429
    75.7943     2557
    75.8600     2591
    75.9256     2781
    75.9913     2987
    76.0569     3157
    76.1226     3518
    76.1882     4627
    76.2539     4322
    76.3195     3261
    76.3852     3311
    76.4508     3539
    76.5165     3084
    76.5821     2742
    76.6478     2818
    76.7134     3165
    76.7791     3873
    76.8447     4506
    76.9104     3509
    76.9760     3231
    77.0417     3507
    77.1073     3263
    77.1730     2642
    77.2386     2536
    77.3043     2550
    77.3699     2508
    77.4356     2669
    77.5013     3159
    77.5669     2926
    77.6326     2639
    77.6982     2748
    77.7639     2832
    77.8295     2602
    77.8952     2560
    77.9608     2716
    78.0265     2866
    78.0921     2680
    78.1578     2749
    78.2234     3227
    78.2891     3444
    78.3547     3557
    78.4204     3138
    78.4860     3332
    78.5517     4042
    78.6173     4483
    78.6830     4283
    78.7486     4071
    78.8143     4069
    78.8799     3654
    78.9456     3266
    79.0112     3144
    79.0769     2915
    79.1425     2860
    79.2082     2879
    79.2738     3824
    79.3395     3975
    79.4051     3067
    79.4708     3199
    79.5364     3735
    79.6021     3072
    79.6677     2944
    79.7334     2887
    79.7990     2956
    79.8647     3312
    79.9304     4110
    79.9960     4884
    80.0617     4010
    80.1273     3740
    80.1930     5054
    80.2586     6666
    80.3243     6259
    80.3899     4202
    80.4556     4926
    80.5212     5451
    80.5869     4409
    80.6525     3964
    80.7182     3706
    80.7838     3327
    80.8495     3431
    80.9151     3588
    80.9808     3534
    81.0464     3423
    81.1121     2953
    81.1777     2902
    81.2434     2967
    81.3090     2781
    81.3747     2517
    81.4403     2624
    81.5060     2429
    81.5716     2505
    81.6373     2603
    81.7029     2702
    81.7686     3075
    81.8342     3794
    81.8999     3415
    81.9655     3046
    82.0312     3215
    82.0968     3547
    82.1625     3282
    82.2281     2799
    82.2938     2708
    82.3595     2866
    82.4251     3138
    82.4908     3823
    82.5564     2898
    82.6221     2656
    82.6877     2797
    82.7534     2980
    82.8190     2640
    82.8847     2497
    82.9503     2468
    83.0160     2517
    83.0816     2626
    83.1473     2755
    83.2129     2787
    83.2786     2759
    83.3442     2711
    83.4099     3072
    83.4755     3522
    83.5412     3038
    83.6068     2734
    83.6725     2762
    83.7381     2918
    83.8038     2556
    83.8694     2490
    83.9351     2436
    84.0007     2518
    84.0664     2359
    84.1320     2408
    84.1977     2342
    84.2633     2398
    84.3290     2601
    84.3946     2580
    84.4603     2532
    84.5260     2497
    84.5916     2508
    84.6573     2421
    84.7229     2610
    84.7886     2451
    84.8542     2448
    84.9199     2500
    84.9855     2502
    85.0512     2719
    85.1168     2798
    85.1825     2942
    85.2481     3291
    85.3138     3147
    85.3794     3686
    85.4451     4383
    85.5107     3968
    85.5764     3252
    85.6420     3389
    85.7077     3396
    85.7733     3012
    85.8390     2704
    85.9046     2633
    85.9703     2560
    86.0359     2563
    86.1016     2590
    86.1672     2904
    86.2329     2957
    86.2985     2609
    86.3642     2715
    86.4298     2756
    86.4955     2738
    86.5611     2754
    86.6268     2835
    86.6925     3236
    86.7581     3009
    86.8238     2828
    86.8894     2654
    86.9551     2875
    87.0207     2746
    87.0864     2855
    87.1520     3134
    87.2177     3422
    87.2833     3147
    87.3490     2767
    87.4146     2806
    87.4803     2949
    87.5459     2897
    87.6116     2814
    87.6772     3208
    87.7429     3506
    87.8085     2949
    87.8742     2872
    87.9398     2763
    88.0055     3128
    88.0711     2766
    88.1368     3332
    88.2024     3839
    88.2681     3340
    88.3337     3041
    88.3994     3021
    88.4650     3159
    88.5307     2983
    88.5963     2721
    88.6620     2597
    88.7276     2569
    88.7933     2496
    88.8589     2748
    88.9246     3134
    88.9902     3141
    89.0559     2762
    89.1216     2770
    89.1872     2870
    89.2529     2976
    89.3185     2710
    89.3842     2821
    89.4498     2913
    89.5155     2738
    89.5811     2511
    89.6468     2669
    89.7124     2926
    89.7781     3692
    89.8437     3191
    89.9094     2964
    89.9750     3192
    90.0407     3871
    90.1063     3610
    90.1720     3215
    90.2376     3051
    90.3033     2906
    90.3689     3103
    90.4346     3333
    90.5002     3207
    90.5659     2793
    90.6315     2863
    90.6972     2847
    90.7628     3001
    90.8285     2882
    90.8941     3159
    90.9598     3006
    91.0254     2897
    91.0911     3048
    91.1567     3584
    91.2224     3775
    91.2880     3225
    91.3537     2866
    91.4193     2972
    91.4850     3465
    91.5507     4116
    91.6163     3774
    91.6820     3084
    91.7476     2970
    91.8133     2889
    91.8789     3271
    91.9446     2939
    92.0102     2692
    92.0759     2610
    92.1415     2714
    92.2072     3005
    92.2728     2938
    92.3385     2887
    92.4041     2953
    92.4698     3258
    92.5354     3773
    92.6011     3492
    92.6667     2982
    92.7324     2756
    92.7980     2950
    92.8637     3123
    92.9293     2659
    92.9950     2534
    93.0606     2511
    93.1263     2400
    93.1919     2465
    93.2576     2377
    93.3232     2406
    93.3889     2441
    93.4545     2410
    93.5202     2492
    93.5858     2551
    93.6515     2950
    93.7171     3098
    93.7828     2716
    93.8484     2776
    93.9141     2893
    93.9798     3018
    94.0454     2816
    94.1111     2710
    94.1767     2662
    94.2424     2704
    94.3080     2662
    94.3737     2915
    94.4393     3132
    94.5050     3351
    94.5706     3146
    94.6363     2738
    94.7019     2796
    94.7676     2886
    94.8332     2851
    94.8989     2736
    94.9645     2559
    95.0302     2536
    95.0958     2405
    95.1615     2320
    95.2271     2554
    95.2928     2413
    95.3584     2414
    95.4241     2442
    95.4897     2481
    95.5554     2336
    95.6210     2369
    95.6867     2443
    95.7523     2434
    95.8180     2402
    95.8836     2523
    95.9493     2569
    96.0149     2502
    96.0806     2371
    96.1463     2429
    96.2119     2602
    96.2776     2548
    96.3432     2559
    96.4089     2832
    96.4745     3515
    96.5402     3621
    96.6058     3057
    96.6715     3191
    96.7371     3486
    96.8028     3403
    96.8684     3166
    96.9341     2789
    96.9997     2854
    97.0654     2887
    97.1310     2637
    97.1967     2516
    97.2623     2495
    97.3280     2675
    97.3936     3157
    97.4593     3563
    97.5249     3338
    97.5906     2761
    97.6562     2633
    97.7219     2791
    97.7875     2999
    97.8532     2880
    97.9188     2587
    97.9845     2430
    98.0501     2462
    98.1158     2420
    98.1814     2515
    98.2471     2600
    98.3128     2920
    98.3784     3388
    98.4441     3705
    98.5097     3835
    98.5754     3556
    98.6410     3147
    98.7067     3278
    98.7723     3473
    98.8380     3890
    98.9036     4127
    98.9693     3845
    99.0349     4377
    99.1006     4350
    99.1662     4075
    99.2319     3834
    99.2975     3726
    99.3632     3505
    99.4288     3508
    99.4945     3124
    99.5601     2993
    99.6258     2737
    99.6914     2742
    99.7571     2869
    99.8227     3333
    99.8884     3022
    99.9540     2739
    99.9934     2757