File: powder_X-ray_diffraction/variable-temperature_experiments/NaTaO2F2/raw_data/240°C.XY
! Initial file:   D:\ZAKARY_OUAIL\MA_THESE\Deuxième_année_de_thèse\DRX\Manips_DRX\1st_NaTaO2F2_XRK900\NaTaO2F2-Lent_240°C.xrdml
! Initial format:  58
! WAVE (A):      1.54060     1.54060     1.00000
! REM : data have been multiplied by     1.0000
! X_data : 2 Theta (deg.)
! Y_data : Intensity (arb. units)
!     X         Y
!--------------------------------------------------------------------------------
    10.0116     6552
    10.0772     6425
    10.1429     6291
    10.2086     6373
    10.2742     6437
    10.3399     6252
    10.4055     6284
    10.4712     6215
    10.5368     6187
    10.6025     6315
    10.6681     6204
    10.7338     6231
    10.7994     6428
    10.8651     6395
    10.9307     6940
    10.9964     9326
    11.0620    24691
    11.1277    47514
    11.1933    15906
    11.2590     7068
    11.3246     6169
    11.3903     6063
    11.4559     5826
    11.5216     5939
    11.5872     5903
    11.6529     5753
    11.7185     5674
    11.7842     5800
    11.8498     5923
    11.9155     5733
    11.9811     5571
    12.0468     5767
    12.1124     5654
    12.1781     5694
    12.2437     5730
    12.3094     5777
    12.3750     5512
    12.4407     5480
    12.5063     5534
    12.5720     5486
    12.6377     5449
    12.7033     5440
    12.7690     5439
    12.8346     5463
    12.9003     5389
    12.9659     5338
    13.0316     5486
    13.0972     5378
    13.1629     5296
    13.2285     5186
    13.2942     5374
    13.3598     5342
    13.4255     5252
    13.4911     5368
    13.5568     5163
    13.6224     5296
    13.6881     5309
    13.7537     5198
    13.8194     5174
    13.8850     5130
    13.9507     5149
    14.0163     5043
    14.0820     4957
    14.1476     5001
    14.2133     5070
    14.2789     4938
    14.3446     5053
    14.4102     4909
    14.4759     5150
    14.5415     4963
    14.6072     4902
    14.6728     4898
    14.7385     4868
    14.8041     5046
    14.8698     4849
    14.9355     4921
    15.0011     4901
    15.0668     4789
    15.1324     4772
    15.1981     4801
    15.2637     4926
    15.3294     4799
    15.3950     4735
    15.4607     4757
    15.5263     4607
    15.5920     4690
    15.6576     4717
    15.7233     4685
    15.7889     4737
    15.8546     4776
    15.9202     4690
    15.9859     4694
    16.0515     4766
    16.1172     4770
    16.1828     4750
    16.2485     5009
    16.3141     4861
    16.3798     4763
    16.4454     4825
    16.5111     4633
    16.5767     4632
    16.6424     4631
    16.7080     4424
    16.7737     4438
    16.8393     4485
    16.9050     4475
    16.9706     4554
    17.0363     4581
    17.1019     4451
    17.1676     4428
    17.2333     4596
    17.2989     4627
    17.3646     4405
    17.4302     4523
    17.4959     4356
    17.5615     4434
    17.6272     4391
    17.6928     4631
    17.7585     4628
    17.8241     4514
    17.8898     4475
    17.9554     4321
    18.0211     4333
    18.0867     4257
    18.1524     4281
    18.2180     4219
    18.2837     4305
    18.3493     4191
    18.4150     4335
    18.4806     4213
    18.5463     4394
    18.6119     4319
    18.6776     4286
    18.7432     4251
    18.8089     4157
    18.8745     4140
    18.9402     4201
    19.0058     4482
    19.0715     4579
    19.1371     4524
    19.2028     4715
    19.2684     4579
    19.3341     4694
    19.3997     5098
    19.4654     5875
    19.5311     9048
    19.5967    39497
    19.6624   124039
    19.7280    54932
    19.7937    10844
    19.8593     5992
    19.9250     4799
    19.9906     4480
    20.0563     4314
    20.1219     4551
    20.1876     4482
    20.2532     4399
    20.3189     4270
    20.3845     4177
    20.4502     4135
    20.5158     4026
    20.5815     4119
    20.6471     3999
    20.7128     3998
    20.7784     3956
    20.8441     4054
    20.9097     3993
    20.9754     3934
    21.0410     3936
    21.1067     3908
    21.1723     4010
    21.2380     3841
    21.3036     3938
    21.3693     3936
    21.4349     3851
    21.5006     3746
    21.5662     3793
    21.6319     3830
    21.6975     4009
    21.7632     4031
    21.8288     4131
    21.8945     4006
    21.9602     3901
    22.0258     4050
    22.0915     3982
    22.1571     4007
    22.2228     4225
    22.2884     7800
    22.3541    18425
    22.4197    10531
    22.4854     4521
    22.5510     3913
    22.6167     3727
    22.6823     3759
    22.7480     3879
    22.8136     3851
    22.8793     3707
    22.9449     3720
    23.0106     3692
    23.0762     3593
    23.1419     3697
    23.2075     3587
    23.2732     3687
    23.3388     3732
    23.4045     3702
    23.4701     3870
    23.5358     3891
    23.6014     3947
    23.6671     3817
    23.7327     3998
    23.7984     3908
    23.8640     3962
    23.9297     4232
    23.9953     4469
    24.0610     5248
    24.1266    12132
    24.1923    44076
    24.2580    33532
    24.3236    25250
    24.3893    48271
    24.4549    24707
    24.5206     6469
    24.5862     4350
    24.6519     3912
    24.7175     3775
    24.7832     3713
    24.8488     3725
    24.9145     3642
    24.9801     4076
    25.0458     3775
    25.1114     3639
    25.1771     3728
    25.2427     3670
    25.3084     3549
    25.3740     3733
    25.4397     3572
    25.5053     3522
    25.5710     3593
    25.6366     3618
    25.7023     3506
    25.7679     3456
    25.8336     3564
    25.8992     3439
    25.9649     3515
    26.0305     3612
    26.0962     3660
    26.1618     3811
    26.2275     3730
    26.2931     3540
    26.3588     3653
    26.4244     3494
    26.4901     3470
    26.5558     3493
    26.6214     3257
    26.6871     3367
    26.7527     3474
    26.8184     3695
    26.8840     3592
    26.9497     3610
    27.0153     3492
    27.0810     3584
    27.1466     3687
    27.2123     3642
    27.2779     3816
    27.3436     3773
    27.4092     3971
    27.4749     4692
    27.5405     5947
    27.6062    10694
    27.6718    61018
    27.7375    68166
    27.8031    30807
    27.8688     7296
    27.9344     4571
    28.0001     3929
    28.0657     3701
    28.1314     3688
    28.1970     3630
    28.2627     4005
    28.3283     3719
    28.3940     3650
    28.4596     3635
    28.5253     3587
    28.5909     3629
    28.6566     3656
    28.7222     3562
    28.7879     3576
    28.8536     3599
    28.9192     3645
    28.9849     3797
    29.0505     4017
    29.1162     4878
    29.1818    11969
    29.2475    32036
    29.3131    23243
    29.3788    21027
    29.4444    14648
    29.5101     6951
    29.5757     3900
    29.6414     3509
    29.7070     3490
    29.7727     3272
    29.8383     3263
    29.9040     3383
    29.9696     3398
    30.0353     3329
    30.1009     3331
    30.1666     3316
    30.2322     3320
    30.2979     3317
    30.3635     3299
    30.4292     3299
    30.4948     3319
    30.5605     3219
    30.6261     3204
    30.6918     3222
    30.7574     3200
    30.8231     3167
    30.8887     3104
    30.9544     3144
    31.0200     3226
    31.0857     3133
    31.1514     3110
    31.2170     3112
    31.2827     3157
    31.3483     3172
    31.4140     3051
    31.4796     3025
    31.5453     3289
    31.6109     3166
    31.6766     3146
    31.7422     3122
    31.8079     3083
    31.8735     3129
    31.9392     3095
    32.0048     3088
    32.0705     3101
    32.1361     3212
    32.2018     3199
    32.2674     3196
    32.3331     3161
    32.3987     3434
    32.4644     3557
    32.5300     3762
    32.5957     6443
    32.6613    21061
    32.7270    13923
    32.7926     5862
    32.8583     3669
    32.9239     3460
    32.9896     3679
    33.0552     3844
    33.1209     4647
    33.1865    11143
    33.2522    34196
    33.3178    21345
    33.3835     8813
    33.4492     4707
    33.5148     5114
    33.5805     9830
    33.6461    29024
    33.7118    20985
    33.7774    20899
    33.8431    10646
    33.9087     7984
    33.9744     3869
    34.0400     3437
    34.1057     3177
    34.1713     3265
    34.2370     3221
    34.3026     3237
    34.3683     3256
    34.4339     3389
    34.4996     3791
    34.5652     9100
    34.6309    10867
    34.6965     8697
    34.7622     4100
    34.8278     3243
    34.8935     3506
    34.9591     3421
    35.0248     3234
    35.0904     2986
    35.1561     2966
    35.2217     2964
    35.2874     2963
    35.3530     2962
    35.4187     2938
    35.4843     2951
    35.5500     2991
    35.6156     3001
    35.6813     2839
    35.7470     2892
    35.8126     2852
    35.8783     3030
    35.9439     2920
    36.0096     2946
    36.0752     2957
    36.1409     2950
    36.2065     2886
    36.2722     2919
    36.3378     2910
    36.4035     2969
    36.4691     3054
    36.5348     3139
    36.6004     3752
    36.6661     9133
    36.7317     5669
    36.7974     5200
    36.8630     3232
    36.9287     3234
    36.9943     2968
    37.0600     3040
    37.1256     3099
    37.1913     3572
    37.2569     7605
    37.3226     8464
    37.3882     6536
    37.4539     3734
    37.5195     3029
    37.5852     3451
    37.6508     3297
    37.7165     3080
    37.7821     2982
    37.8478     2847
    37.9134     2665
    37.9791     2809
    38.0448     2780
    38.1104     2820
    38.1761     2771
    38.2417     2793
    38.3074     2780
    38.3730     2735
    38.4387     2672
    38.5043     2688
    38.5700     2763
    38.6356     2735
    38.7013     2818
    38.7669     2822
    38.8326     2714
    38.8982     2746
    38.9639     2718
    39.0295     2759
    39.0952     2752
    39.1608     2744
    39.2265     2723
    39.2921     2659
    39.3578     2713
    39.4234     2809
    39.4891     2804
    39.5547     3109
    39.6204     4702
    39.6860     4064
    39.7517     3978
    39.8173     3334
    39.8830     4782
    39.9486     7211
    40.0143     5583
    40.0799     4070
    40.1456     3177
    40.2112     3298
    40.2769     6534
    40.3425     7885
    40.4082     6628
    40.4739     3980
    40.5395     3096
    40.6052     3074
    40.6708     3084
    40.7365     3198
    40.8021     4156
    40.8678     9939
    40.9334     7990
    40.9991     9421
    41.0647    13242
    41.1304    10951
    41.1960    13749
    41.2617     7635
    41.3273     5001
    41.3930     3200
    41.4586     2890
    41.5243     2883
    41.5899     2695
    41.6556     2807
    41.7212     2746
    41.7869     2585
    41.8525     2695
    41.9182     2727
    41.9838     2698
    42.0495     2714
    42.1151     2680
    42.1808     2770
    42.2464     2706
    42.3121     2747
    42.3777     2665
    42.4434     2585
    42.5090     2544
    42.5747     2628
    42.6404     2624
    42.7060     2661
    42.7717     2732
    42.8373     2762
    42.9030     2702
    42.9686     2665
    43.0343     2700
    43.0999     2580
    43.1656     2655
    43.2312     2666
    43.2969     3055
    43.3625     3220
    43.4282     2978
    43.4938     2910
    43.5595     2748
    43.6251     2650
    43.6908     2700
    43.7564     2651
    43.8221     2609
    43.8877     2706
    43.9534     2637
    44.0190     2699
    44.0847     3251
    44.1503     4014
    44.2160     3287
    44.2816     3247
    44.3473     3081
    44.4129     4305
    44.4786     5213
    44.5442     4178
    44.6099     3564
    44.6755     2876
    44.7412     2688
    44.8068     2696
    44.8725     2636
    44.9381     2551
    45.0038     2699
    45.0695     2714
    45.1351     2699
    45.2008     2702
    45.2664     2570
    45.3321     2675
    45.3977     2768
    45.4634     2942
    45.5290     3505
    45.5947     9881
    45.6603     5734
    45.7260     7161
    45.7916     3741
    45.8573     2939
    45.9229     2793
    45.9886     2748
    46.0542     2757
    46.1199     2782
    46.1855     2877
    46.2512     3447
    46.3168     7135
    46.3825     4088
    46.4481     4967
    46.5138     3156
    46.5794     2918
    46.6451     2776
    46.7107     2795
    46.7764     2930
    46.8420     2961
    46.9077     3091
    46.9733     4534
    47.0390     8599
    47.1046     5405
    47.1703     5911
    47.2359     3448
    47.3016     3009
    47.3673     3164
    47.4329     3299
    47.4986     3341
    47.5642     3874
    47.6299     6081
    47.6955    18252
    47.7612    12472
    47.8268    12234
    47.8925     6831
    47.9581     3828
    48.0238     3219
    48.0894     3193
    48.1551     3345
    48.2207     3810
    48.2864     9082
    48.3520    13195
    48.4177    10523
    48.4833     8571
    48.5490     5409
    48.6146     4472
    48.6803    11248
    48.7459     8092
    48.8116     7634
    48.8772     5269
    48.9429     3229
    49.0085     2887
    49.0742     2942
    49.1398     2957
    49.2055     2883
    49.2711     2899
    49.3368     3344
    49.4024     3425
    49.4681     3095
    49.5337     3384
    49.5994     3465
    49.6651     3400
    49.7307     3494
    49.7964     3871
    49.8620     8988
    49.9277    18385
    49.9933     9984
    50.0590    11550
    50.1246     5645
    50.1903     3806
    50.2559     3650
    50.3216     4890
    50.3872    10296
    50.4529     7595
    50.5185     7115
    50.5842     5197
    50.6498     3407
    50.7155     2908
    50.7811     2917
    50.8468     2808
    50.9124     2764
    50.9781     2773
    51.0437     2896
    51.1094     3004
    51.1750     3260
    51.2407     5641
    51.3063     7695
    51.3720     4718
    51.4376     5541
    51.5033     3923
    51.5689     3201
    51.6346     3060
    51.7002     3067
    51.7659     2921
    51.8315     2785
    51.8972     2812
    51.9628     2804
    52.0285     2774
    52.0942     2803
    52.1598     2823
    52.2255     2913
    52.2911     3121
    52.3568     3257
    52.4224     5311
    52.4881    10463
    52.5537     7060
    52.6194     6793
    52.6850     5222
    52.7507     3511
    52.8163     5115
    52.8820     6498
    52.9476     4700
    53.0133     4626
    53.0789     3624
    53.1446     2927
    53.2102     2776
    53.2759     2867
    53.3415     2788
    53.4072     2931
    53.4728     3618
    53.5385     4099
    53.6041     3118
    53.6698     3516
    53.7354     2990
    53.8011     2695
    53.8667     2788
    53.9324     2752
    53.9980     2705
    54.0637     2660
    54.1293     2718
    54.1950     2857
    54.2607     3148
    54.3263     3117
    54.3920     2929
    54.4576     2721
    54.5233     2759
    54.5889     2695
    54.6546     2789
    54.7202     2736
    54.7859     2688
    54.8515     2741
    54.9172     2833
    54.9828     2781
    55.0485     2850
    55.1141     2972
    55.1798     3287
    55.2454     5179
    55.3111    11394
    55.3767     6019
    55.4424     7334
    55.5080     5129
    55.5737     3603
    55.6393     3491
    55.7050     2939
    55.7706     3094
    55.8363     2893
    55.9019     2878
    55.9676     2949
    56.0332     3013
    56.0989     3377
    56.1645     5269
    56.2302     9055
    56.2958    12895
    56.3615     7563
    56.4271     8150
    56.4928     5169
    56.5584     3253
    56.6241     3115
    56.6898     3087
    56.7554     3088
    56.8211     3271
    56.8867     4310
    56.9524     7750
    57.0180    10056
    57.0837     7242
    57.1493     7588
    57.2150     9045
    57.2806     5083
    57.3463     4630
    57.4119     4208
    57.4776     3087
    57.5432     3050
    57.6089     3002
    57.6745     3080
    57.7402     3832
    57.8058     8242
    57.8715     6230
    57.9371     5589
    58.0028     6520
    58.0684     3971
    58.1341     3673
    58.1997     3352
    58.2654     3281
    58.3310     3714
    58.3967     6442
    58.4623     8371
    58.5280     5322
    58.5936     7094
    58.6593    10140
    58.7249     5578
    58.7906     5614
    58.8562     7210
    58.9219     9519
    58.9876     5999
    59.0532     5577
    59.1189     5703
    59.1845     3431
    59.2502     3133
    59.3158     2971
    59.3815     2964
    59.4471     3430
    59.5128     5211
    59.5784     8507
    59.6441     5796
    59.7097     6100
    59.7754     8382
    59.8410    10820
    59.9067     7238
    59.9723     5881
    60.0380     6393
    60.1036     3674
    60.1693     3031
    60.2349     2929
    60.3006     2990
    60.3662     3139
    60.4319     3328
    60.4975     4158
    60.5632     8491
    60.6288    13543
    60.6945     7485
    60.7601     9498
    60.8258     8352
    60.8914     5227
    60.9571     5288
    61.0227     5461
    61.0884     3699
    61.1540     3738
    61.2197     3328
    61.2854     2764
    61.3510     2578
    61.4167     2669
    61.4823     2544
    61.5480     2626
    61.6136     2561
    61.6793     2461
    61.7449     2512
    61.8106     2526
    61.8762     2491
    61.9419     2499
    62.0075     2550
    62.0732     2580
    62.1388     2562
    62.2045     2447
    62.2701     2626
    62.3358     2598
    62.4014     2519
    62.4671     2587
    62.5327     2520
    62.5984     2536
    62.6640     2564
    62.7297     2514
    62.7953     2501
    62.8610     2587
    62.9266     2532
    62.9923     2430
    63.0579     2568
    63.1236     2446
    63.1892     2483
    63.2549     2665
    63.3205     2754
    63.3862     2892
    63.4518     3434
    63.5175     3849
    63.5831     3078
    63.6488     3149
    63.7145     3072
    63.7801     2687
    63.8458     3177
    63.9114     4219
    63.9771     3385
    64.0427     3568
    64.1084     4549
    64.1740     3483
    64.2397     2954
    64.3053     3184
    64.3710     2688
    64.4366     2492
    64.5023     2422
    64.5679     2378
    64.6336     2526
    64.6992     2629
    64.7649     2608
    64.8305     2741
    64.8962     2717
    64.9618     2714
    65.0275     2569
    65.0931     2542
    65.1588     2553
    65.2244     2378
    65.2901     2433
    65.3557     2433
    65.4214     2400
    65.4870     2426
    65.5527     2419
    65.6183     2381
    65.6840     2374
    65.7496     2436
    65.8153     2549
    65.8810     2438
    65.9466     2396
    66.0123     2476
    66.0779     2402
    66.1436     2316
    66.2092     2473
    66.2749     2431
    66.3405     2542
    66.4062     2426
    66.4718     2421
    66.5375     2373
    66.6031     2363
    66.6688     2594
    66.7344     2444
    66.8001     2520
    66.8657     2478
    66.9314     2330
    66.9970     2513
    67.0627     2392
    67.1283     2346
    67.1940     2412
    67.2596     2420
    67.3253     2322
    67.3909     2384
    67.4566     2430
    67.5222     2495
    67.5879     2457
    67.6535     2501
    67.7192     2437
    67.7848     2530
    67.8505     2544
    67.9161     2502
    67.9818     3223
    68.0474     3441
    68.1131     2982
    68.1787     3390
    68.2444     3158
    68.3101     2943
    68.3757     3537
    68.4414     5222
    68.5070     3285
    68.5727     3186
    68.6383     3883
    68.7040     2760
    68.7696     2525
    68.8353     2532
    68.9009     2551
    68.9666     2504
    69.0322     2751
    69.0979     2733
    69.1635     3415
    69.2292     4275
    69.2948     3792
    69.3605     3643
    69.4261     3628
    69.4918     3399
    69.5574     3451
    69.6231     3285
    69.6887     3285
    69.7544     4921
    69.8200     7417
    69.8857     5222
    69.9513     4574
    70.0170     5422
    70.0826     4426
    70.1483     3387
    70.2139     3008
    70.2796     2984
    70.3452     3259
    70.4109     4816
    70.4765     4452
    70.5422     3225
    70.6078     3957
    70.6735     4440
    70.7392     4507
    70.8048     4155
    70.8705     3537
    70.9361     3694
    71.0018     3663
    71.0674     4398
    71.1331     4522
    71.1987     3102
    71.2644     3253
    71.3300     3576
    71.3957     2891
    71.4613     2866
    71.5270     2992
    71.5926     4238
    71.6583     4274
    71.7239     3767
    71.7896     3729
    71.8552     3392
    71.9209     3120
    71.9865     2854
    72.0522     2697
    72.1178     2484
    72.1835     2592
    72.2491     2550
    72.3148     2613
    72.3804     3047
    72.4461     4074
    72.5117     3571
    72.5774     2907
    72.6430     3199
    72.7087     3211
    72.7743     2823
    72.8400     2739
    72.9057     3049
    72.9713     4224
    73.0370     3852
    73.1026     2997
    73.1683     3446
    73.2339     3958
    73.2996     3947
    73.3652     3401
    73.4309     3236
    73.4965     3772
    73.5622     3235
    73.6278     2938
    73.6935     3569
    73.7591     5267
    73.8248     5389
    73.8904     4323
    73.9561     3933
    74.0217     4000
    74.0874     3627
    74.1530     2720
    74.2187     2502
    74.2843     2468
    74.3500     2470
    74.4156     2511
    74.4813     2410
    74.5469     2397
    74.6126     2432
    74.6782     2466
    74.7439     2382
    74.8095     2312
    74.8752     2283
    74.9408     2375
    75.0065     2388
    75.0722     2443
    75.1378     2426
    75.2035     2479
    75.2691     2412
    75.3348     2496
    75.4004     2529
    75.4661     2380
    75.5317     2534
    75.5974     2535
    75.6630     2448
    75.7287     2391
    75.7943     2544
    75.8600     2679
    75.9256     2785
    75.9913     2916
    76.0569     3128
    76.1226     3953
    76.1882     4861
    76.2539     3962
    76.3195     3342
    76.3852     3651
    76.4508     3430
    76.5165     2897
    76.5821     2736
    76.6478     2816
    76.7134     3360
    76.7791     4297
    76.8447     4231
    76.9104     3186
    76.9760     3295
    77.0417     3445
    77.1073     2880
    77.1730     2657
    77.2386     2531
    77.3043     2514
    77.3699     2601
    77.4356     2746
    77.5013     3165
    77.5669     2877
    77.6326     2615
    77.6982     2777
    77.7639     2772
    77.8295     2629
    77.8952     2573
    77.9608     2732
    78.0265     2777
    78.0921     2719
    78.1578     2743
    78.2234     3352
    78.2891     3562
    78.3547     3411
    78.4204     3174
    78.4860     3579
    78.5517     4316
    78.6173     4175
    78.6830     4189
    78.7486     4113
    78.8143     3854
    78.8799     3416
    78.9456     3291
    79.0112     3102
    79.0769     2799
    79.1425     2836
    79.2082     3107
    79.2738     4019
    79.3395     3640
    79.4051     3071
    79.4708     3275
    79.5364     3517
    79.6021     2994
    79.6677     2835
    79.7334     2969
    79.7990     3013
    79.8647     3397
    79.9304     4533
    79.9960     4643
    80.0617     3637
    80.1273     4072
    80.1930     5464
    80.2586     6496
    80.3243     5715
    80.3899     4317
    80.4556     5463
    80.5212     5130
    80.5869     4415
    80.6525     4004
    80.7182     3703
    80.7838     3263
    80.8495     3603
    80.9151     3647
    80.9808     3492
    81.0464     3215
    81.1121     2977
    81.1777     2891
    81.2434     2972
    81.3090     2746
    81.3747     2553
    81.4403     2555
    81.5060     2533
    81.5716     2597
    81.6373     2571
    81.7029     2826
    81.7686     3365
    81.8342     3696
    81.8999     3332
    81.9655     2944
    82.0312     3395
    82.0968     3541
    82.1625     3177
    82.2281     2713
    82.2938     2769
    82.3595     2820
    82.4251     3221
    82.4908     3604
    82.5564     2785
    82.6221     2707
    82.6877     2878
    82.7534     2962
    82.8190     2653
    82.8847     2624
    82.9503     2456
    83.0160     2447
    83.0816     2660
    83.1473     2710
    83.2129     2712
    83.2786     2794
    83.3442     2786
    83.4099     3229
    83.4755     3355
    83.5412     2794
    83.6068     2651
    83.6725     2756
    83.7381     2713
    83.8038     2555
    83.8694     2467
    83.9351     2494
    84.0007     2449
    84.0664     2467
    84.1320     2363
    84.1977     2477
    84.2633     2478
    84.3290     2522
    84.3946     2653
    84.4603     2537
    84.5260     2460
    84.5916     2554
    84.6573     2585
    84.7229     2469
    84.7886     2497
    84.8542     2492
    84.9199     2379
    84.9855     2666
    85.0512     2711
    85.1168     2963
    85.1825     2955
    85.2481     3197
    85.3138     3292
    85.3794     3933
    85.4451     4330
    85.5107     3736
    85.5764     3341
    85.6420     3207
    85.7077     3322
    85.7733     2863
    85.8390     2667
    85.9046     2645
    85.9703     2449
    86.0359     2561
    86.1016     2693
    86.1672     3090
    86.2329     2813
    86.2985     2643
    86.3642     2629
    86.4298     2733
    86.4955     2752
    86.5611     2673
    86.6268     2900
    86.6925     3389
    86.7581     2851
    86.8238     2745
    86.8894     2731
    86.9551     2926
    87.0207     2831
    87.0864     2805
    87.1520     3337
    87.2177     3369
    87.2833     2866
    87.3490     2710
    87.4146     2873
    87.4803     3050
    87.5459     2852
    87.6116     2922
    87.6772     3413
    87.7429     3277
    87.8085     2868
    87.8742     2786
    87.9398     2913
    88.0055     2986
    88.0711     3098
    88.1368     3626
    88.2024     3636
    88.2681     3214
    88.3337     2994
    88.3994     3173
    88.4650     3197
    88.5307     2848
    88.5963     2736
    88.6620     2770
    88.7276     2513
    88.7933     2632
    88.8589     2820
    88.9246     3228
    88.9902     3003
    89.0559     2669
    89.1216     2724
    89.1872     2849
    89.2529     2891
    89.3185     2803
    89.3842     2997
    89.4498     2719
    89.5155     2553
    89.5811     2599
    89.6468     2798
    89.7124     3026
    89.7781     3709
    89.8437     3099
    89.9094     2917
    89.9750     3216
    90.0407     3753
    90.1063     3520
    90.1720     3225
    90.2376     2952
    90.3033     3116
    90.3689     3227
    90.4346     3409
    90.5002     2841
    90.5659     2783
    90.6315     2833
    90.6972     3070
    90.7628     2845
    90.8285     3023
    90.8941     3048
    90.9598     2855
    91.0254     2830
    91.0911     3172
    91.1567     3701
    91.2224     3649
    91.2880     3004
    91.3537     2889
    91.4193     3184
    91.4850     3759
    91.5507     4433
    91.6163     3546
    91.6820     2939
    91.7476     2865
    91.8133     3257
    91.8789     3342
    91.9446     2957
    92.0102     2727
    92.0759     2759
    92.1415     2944
    92.2072     2938
    92.2728     2891
    92.3385     2935
    92.4041     2911
    92.4698     3310
    92.5354     3868
    92.6011     3115
    92.6667     2924
    92.7324     2955
    92.7980     2994
    92.8637     2925
    92.9293     2593
    92.9950     2661
    93.0606     2563
    93.1263     2391
    93.1919     2416
    93.2576     2373
    93.3232     2389
    93.3889     2424
    93.4545     2514
    93.5202     2495
    93.5858     2849
    93.6515     3176
    93.7171     2876
    93.7828     2752
    93.8484     2898
    93.9141     3003
    93.9798     2891
    94.0454     2573
    94.1111     2759
    94.1767     2576
    94.2424     2624
    94.3080     2826
    94.3737     3167
    94.4393     3170
    94.5050     3388
    94.5706     2849
    94.6363     2789
    94.7019     2822
    94.7676     2847
    94.8332     2840
    94.8989     2548
    94.9645     2471
    95.0302     2464
    95.0958     2401
    95.1615     2448
    95.2271     2344
    95.2928     2406
    95.3584     2476
    95.4241     2362
    95.4897     2394
    95.5554     2354
    95.6210     2415
    95.6867     2468
    95.7523     2431
    95.8180     2459
    95.8836     2477
    95.9493     2504
    96.0149     2516
    96.0806     2448
    96.1463     2525
    96.2119     2507
    96.2776     2572
    96.3432     2792
    96.4089     3154
    96.4745     3587
    96.5402     3223
    96.6058     3165
    96.6715     3373
    96.7371     3482
    96.8028     3209
    96.8684     2903
    96.9341     2908
    96.9997     2900
    97.0654     2732
    97.1310     2596
    97.1967     2542
    97.2623     2625
    97.3280     2825
    97.3936     3327
    97.4593     3374
    97.5249     3011
    97.5906     2606
    97.6562     2689
    97.7219     2891
    97.7875     2911
    97.8532     2765
    97.9188     2495
    97.9845     2470
    98.0501     2554
    98.1158     2552
    98.1814     2552
    98.2471     2822
    98.3128     2981
    98.3784     3443
    98.4441     3709
    98.5097     3847
    98.5754     3422
    98.6410     3257
    98.7067     3189
    98.7723     3486
    98.8380     3888
    98.9036     4148
    98.9693     3986
    99.0349     4598
    99.1006     4344
    99.1662     4030
    99.2319     3699
    99.2975     3364
    99.3632     3449
    99.4288     3399
    99.4945     3056
    99.5601     2901
    99.6258     2722
    99.6914     2757
    99.7571     2880
    99.8227     3381
    99.8884     2856
    99.9540     2879
    99.9934     2822