File: powder_X-ray_diffraction/variable-temperature_experiments/NaTaO2F2/raw_data/250°C.XY
! Initial file:   D:\ZAKARY_OUAIL\MA_THESE\Deuxième_année_de_thèse\DRX\Manips_DRX\1st_NaTaO2F2_XRK900\NaTaO2F2-Lent_250°C.xrdml
! Initial format:  58
! WAVE (A):      1.54060     1.54060     1.00000
! REM : data have been multiplied by     1.0000
! X_data : 2 Theta (deg.)
! Y_data : Intensity (arb. units)
!     X         Y
!--------------------------------------------------------------------------------
    10.0116     6413
    10.0772     6470
    10.1429     6249
    10.2086     6164
    10.2742     6244
    10.3399     6322
    10.4055     6161
    10.4712     6189
    10.5368     6115
    10.6025     6177
    10.6681     6143
    10.7338     6366
    10.7994     6345
    10.8651     6578
    10.9307     6986
    10.9964     9457
    11.0620    24862
    11.1277    48007
    11.1933    16108
    11.2590     7092
    11.3246     6325
    11.3903     6101
    11.4559     5997
    11.5216     5947
    11.5872     5881
    11.6529     5744
    11.7185     5798
    11.7842     5691
    11.8498     5742
    11.9155     5778
    11.9811     5568
    12.0468     5699
    12.1124     5595
    12.1781     5649
    12.2437     5513
    12.3094     5559
    12.3750     5416
    12.4407     5467
    12.5063     5521
    12.5720     5361
    12.6377     5340
    12.7033     5418
    12.7690     5297
    12.8346     5325
    12.9003     5295
    12.9659     5249
    13.0316     5317
    13.0972     5402
    13.1629     5344
    13.2285     5343
    13.2942     5279
    13.3598     5337
    13.4255     5320
    13.4911     5251
    13.5568     5255
    13.6224     5205
    13.6881     5201
    13.7537     4990
    13.8194     5101
    13.8850     5127
    13.9507     5099
    14.0163     5166
    14.0820     5080
    14.1476     5001
    14.2133     4972
    14.2789     5032
    14.3446     4994
    14.4102     4982
    14.4759     4988
    14.5415     4894
    14.6072     4894
    14.6728     4895
    14.7385     4784
    14.8041     4903
    14.8698     4895
    14.9355     4856
    15.0011     4869
    15.0668     4903
    15.1324     4768
    15.1981     4901
    15.2637     4687
    15.3294     4668
    15.3950     4649
    15.4607     4743
    15.5263     4727
    15.5920     4766
    15.6576     4841
    15.7233     4716
    15.7889     4803
    15.8546     4608
    15.9202     4609
    15.9859     4684
    16.0515     4644
    16.1172     4691
    16.1828     4800
    16.2485     4850
    16.3141     4848
    16.3798     4675
    16.4454     4670
    16.5111     4722
    16.5767     4677
    16.6424     4665
    16.7080     4537
    16.7737     4563
    16.8393     4576
    16.9050     4480
    16.9706     4463
    17.0363     4471
    17.1019     4525
    17.1676     4513
    17.2333     4476
    17.2989     4497
    17.3646     4455
    17.4302     4529
    17.4959     4361
    17.5615     4392
    17.6272     4457
    17.6928     4607
    17.7585     4693
    17.8241     4542
    17.8898     4343
    17.9554     4293
    18.0211     4268
    18.0867     4283
    18.1524     4290
    18.2180     4239
    18.2837     4232
    18.3493     4174
    18.4150     4154
    18.4806     4145
    18.5463     4207
    18.6119     4268
    18.6776     4024
    18.7432     4243
    18.8089     4148
    18.8745     4197
    18.9402     4246
    19.0058     4397
    19.0715     4451
    19.1371     4523
    19.2028     4605
    19.2684     4632
    19.3341     4686
    19.3997     5133
    19.4654     5999
    19.5311     9755
    19.5967    45204
    19.6624   119302
    19.7280    49140
    19.7937     9843
    19.8593     5587
    19.9250     4742
    19.9906     4475
    20.0563     4334
    20.1219     4377
    20.1876     4567
    20.2532     4264
    20.3189     4122
    20.3845     4160
    20.4502     4034
    20.5158     4039
    20.5815     4138
    20.6471     3927
    20.7128     3994
    20.7784     4081
    20.8441     4037
    20.9097     4031
    20.9754     3891
    21.0410     3766
    21.1067     3897
    21.1723     3932
    21.2380     3863
    21.3036     3791
    21.3693     3855
    21.4349     3783
    21.5006     3885
    21.5662     3825
    21.6319     3975
    21.6975     3881
    21.7632     4024
    21.8288     4129
    21.8945     3959
    21.9602     3902
    22.0258     3931
    22.0915     3886
    22.1571     3971
    22.2228     4352
    22.2884     8146
    22.3541    18322
    22.4197     9928
    22.4854     4385
    22.5510     3904
    22.6167     3757
    22.6823     3653
    22.7480     3816
    22.8136     3763
    22.8793     3797
    22.9449     3535
    23.0106     3662
    23.0762     3713
    23.1419     3736
    23.2075     3714
    23.2732     3667
    23.3388     3696
    23.4045     3762
    23.4701     3868
    23.5358     3759
    23.6014     3899
    23.6671     3855
    23.7327     3827
    23.7984     3914
    23.8640     4039
    23.9297     4179
    23.9953     4536
    24.0610     5212
    24.1266    12254
    24.1923    45170
    24.2580    31185
    24.3236    27477
    24.3893    46243
    24.4549    21493
    24.5206     5878
    24.5862     4232
    24.6519     4035
    24.7175     3814
    24.7832     3700
    24.8488     3704
    24.9145     3844
    24.9801     3969
    25.0458     3677
    25.1114     3573
    25.1771     3658
    25.2427     3644
    25.3084     3673
    25.3740     3562
    25.4397     3706
    25.5053     3562
    25.5710     3538
    25.6366     3575
    25.7023     3432
    25.7679     3383
    25.8336     3489
    25.8992     3431
    25.9649     3535
    26.0305     3446
    26.0962     3711
    26.1618     3697
    26.2275     3632
    26.2931     3486
    26.3588     3613
    26.4244     3608
    26.4901     3545
    26.5558     3409
    26.6214     3476
    26.6871     3540
    26.7527     3561
    26.8184     3724
    26.8840     3562
    26.9497     3660
    27.0153     3662
    27.0810     3647
    27.1466     3694
    27.2123     3668
    27.2779     3772
    27.3436     3719
    27.4092     4079
    27.4749     4720
    27.5405     6003
    27.6062    11617
    27.6718    68561
    27.7375    65760
    27.8031    27052
    27.8688     6771
    27.9344     4588
    28.0001     4030
    28.0657     3736
    28.1314     3708
    28.1970     3679
    28.2627     3934
    28.3283     3787
    28.3940     3527
    28.4596     3585
    28.5253     3640
    28.5909     3599
    28.6566     3654
    28.7222     3463
    28.7879     3572
    28.8536     3486
    28.9192     3648
    28.9849     3832
    29.0505     4000
    29.1162     4954
    29.1818    13342
    29.2475    32035
    29.3131    23314
    29.3788    21250
    29.4444    13687
    29.5101     6596
    29.5757     3921
    29.6414     3508
    29.7070     3436
    29.7727     3207
    29.8383     3224
    29.9040     3334
    29.9696     3345
    30.0353     3255
    30.1009     3293
    30.1666     3296
    30.2322     3155
    30.2979     3365
    30.3635     3287
    30.4292     3291
    30.4948     3255
    30.5605     3375
    30.6261     3065
    30.6918     3217
    30.7574     3217
    30.8231     3215
    30.8887     3094
    30.9544     3190
    31.0200     3261
    31.0857     3121
    31.1514     3114
    31.2170     3273
    31.2827     3080
    31.3483     3106
    31.4140     3161
    31.4796     3093
    31.5453     3062
    31.6109     3162
    31.6766     3142
    31.7422     3157
    31.8079     3136
    31.8735     3056
    31.9392     3075
    32.0048     3158
    32.0705     3190
    32.1361     3196
    32.2018     3249
    32.2674     3244
    32.3331     3313
    32.3987     3263
    32.4644     3410
    32.5300     3963
    32.5957     8196
    32.6613    18148
    32.7270    13517
    32.7926     5131
    32.8583     3631
    32.9239     3439
    32.9896     3707
    33.0552     4040
    33.1209     4772
    33.1865    12691
    33.2522    33406
    33.3178    21312
    33.3835     8372
    33.4492     4834
    33.5148     5245
    33.5805    12060
    33.6461    30169
    33.7118    20594
    33.7774    20077
    33.8431    11141
    33.9087     7578
    33.9744     3832
    34.0400     3388
    34.1057     3297
    34.1713     3193
    34.2370     3247
    34.3026     3164
    34.3683     3288
    34.4339     3465
    34.4996     3911
    34.5652    11546
    34.6309     9554
    34.6965     7718
    34.7622     3635
    34.8278     3251
    34.8935     3545
    34.9591     3267
    35.0248     3252
    35.0904     3061
    35.1561     2994
    35.2217     2987
    35.2874     3040
    35.3530     2909
    35.4187     2868
    35.4843     2912
    35.5500     2911
    35.6156     2917
    35.6813     3041
    35.7470     2919
    35.8126     2888
    35.8783     3028
    35.9439     3095
    36.0096     3007
    36.0752     2963
    36.1409     2989
    36.2065     2972
    36.2722     2975
    36.3378     2835
    36.4035     2888
    36.4691     3008
    36.5348     3135
    36.6004     3716
    36.6661     9121
    36.7317     5724
    36.7974     5126
    36.8630     3169
    36.9287     3159
    36.9943     3010
    37.0600     3021
    37.1256     3116
    37.1913     3798
    37.2569     8554
    37.3226     7722
    37.3882     6516
    37.4539     3602
    37.5195     3172
    37.5852     3524
    37.6508     3427
    37.7165     3068
    37.7821     2868
    37.8478     2846
    37.9134     2836
    37.9791     2739
    38.0448     2902
    38.1104     2691
    38.1761     2839
    38.2417     2798
    38.3074     2778
    38.3730     2739
    38.4387     2747
    38.5043     2771
    38.5700     2869
    38.6356     2845
    38.7013     2822
    38.7669     2677
    38.8326     2757
    38.8982     2683
    38.9639     2645
    39.0295     2688
    39.0952     2747
    39.1608     2727
    39.2265     2785
    39.2921     2763
    39.3578     2752
    39.4234     2722
    39.4891     2800
    39.5547     3152
    39.6204     4649
    39.6860     4111
    39.7517     3836
    39.8173     3388
    39.8830     5438
    39.9486     6496
    40.0143     5844
    40.0799     3848
    40.1456     3063
    40.2112     3383
    40.2769     6955
    40.3425     7658
    40.4082     6627
    40.4739     3878
    40.5395     3083
    40.6052     3067
    40.6708     3091
    40.7365     3388
    40.8021     4769
    40.8678    11193
    40.9334     7403
    40.9991     9847
    41.0647    12898
    41.1304    13117
    41.1960    11414
    41.2617     7786
    41.3273     4247
    41.3930     3156
    41.4586     2847
    41.5243     2789
    41.5899     2792
    41.6556     2876
    41.7212     2899
    41.7869     2702
    41.8525     2732
    41.9182     2751
    41.9838     2641
    42.0495     2729
    42.1151     2624
    42.1808     2750
    42.2464     2680
    42.3121     2625
    42.3777     2696
    42.4434     2636
    42.5090     2696
    42.5747     2628
    42.6404     2604
    42.7060     2689
    42.7717     2722
    42.8373     2709
    42.9030     2708
    42.9686     2782
    43.0343     2603
    43.0999     2686
    43.1656     2732
    43.2312     2705
    43.2969     2937
    43.3625     3227
    43.4282     2937
    43.4938     2843
    43.5595     2701
    43.6251     2725
    43.6908     2604
    43.7564     2594
    43.8221     2638
    43.8877     2747
    43.9534     2692
    44.0190     2750
    44.0847     3553
    44.1503     3926
    44.2160     3541
    44.2816     3175
    44.3473     3158
    44.4129     4909
    44.4786     4548
    44.5442     4286
    44.6099     3276
    44.6755     2863
    44.7412     2605
    44.8068     2706
    44.8725     2700
    44.9381     2606
    45.0038     2706
    45.0695     2632
    45.1351     2680
    45.2008     2640
    45.2664     2761
    45.3321     2797
    45.3977     2905
    45.4634     2932
    45.5290     3745
    45.5947    11222
    45.6603     5690
    45.7260     7154
    45.7916     3618
    45.8573     2872
    45.9229     2809
    45.9886     2717
    46.0542     2892
    46.1199     2767
    46.1855     2908
    46.2512     3447
    46.3168     7305
    46.3825     4065
    46.4481     5059
    46.5138     3068
    46.5794     2783
    46.6451     2807
    46.7107     2767
    46.7764     2880
    46.8420     2974
    46.9077     3258
    46.9733     5418
    47.0390     8689
    47.1046     5358
    47.1703     5684
    47.2359     3188
    47.3016     3008
    47.3673     3134
    47.4329     3213
    47.4986     3499
    47.5642     4067
    47.6299     7412
    47.6955    20647
    47.7612    10846
    47.8268    12434
    47.8925     5695
    47.9581     3699
    48.0238     3144
    48.0894     3221
    48.1551     3297
    48.2207     3925
    48.2864    10814
    48.3520    13505
    48.4177    10135
    48.4833     8414
    48.5490     4871
    48.6146     4645
    48.6803    12423
    48.7459     7056
    48.8116     8095
    48.8772     4581
    48.9429     3195
    49.0085     2886
    49.0742     2860
    49.1398     2897
    49.2055     2918
    49.2711     2935
    49.3368     3248
    49.4024     3338
    49.4681     3294
    49.5337     3475
    49.5994     3532
    49.6651     3492
    49.7307     3625
    49.7964     4240
    49.8620    10429
    49.9277    17436
    49.9933     9746
    50.0590    10707
    50.1246     5137
    50.1903     3849
    50.2559     3840
    50.3216     6007
    50.3872    11602
    50.4529     6821
    50.5185     7484
    50.5842     4414
    50.6498     3061
    50.7155     3036
    50.7811     2884
    50.8468     2838
    50.9124     2779
    50.9781     2900
    51.0437     2905
    51.1094     3066
    51.1750     3436
    51.2407     7468
    51.3063     6053
    51.3720     5199
    51.4376     4763
    51.5033     3856
    51.5689     3102
    51.6346     3052
    51.7002     2953
    51.7659     2825
    51.8315     2847
    51.8972     2753
    51.9628     2739
    52.0285     2823
    52.0942     2772
    52.1598     2801
    52.2255     2959
    52.2911     3119
    52.3568     3333
    52.4224     6075
    52.4881    10630
    52.5537     6326
    52.6194     6875
    52.6850     4650
    52.7507     3645
    52.8163     5390
    52.8820     6093
    52.9476     4497
    53.0133     4369
    53.0789     3283
    53.1446     2887
    53.2102     2779
    53.2759     2818
    53.3415     2776
    53.4072     2931
    53.4728     3576
    53.5385     3977
    53.6041     3290
    53.6698     3427
    53.7354     2896
    53.8011     2798
    53.8667     2690
    53.9324     2711
    53.9980     2703
    54.0637     2694
    54.1293     2820
    54.1950     3014
    54.2607     3162
    54.3263     2933
    54.3920     2866
    54.4576     2783
    54.5233     2716
    54.5889     2665
    54.6546     2704
    54.7202     2700
    54.7859     2694
    54.8515     2720
    54.9172     2651
    54.9828     2705
    55.0485     2974
    55.1141     2996
    55.1798     3694
    55.2454     6746
    55.3111    10390
    55.3767     5685
    55.4424     7382
    55.5080     4291
    55.5737     3566
    55.6393     3291
    55.7050     3007
    55.7706     3136
    55.8363     2909
    55.9019     2894
    55.9676     2949
    56.0332     3098
    56.0989     3508
    56.1645     6110
    56.2302     9474
    56.2958    12630
    56.3615     7226
    56.4271     8047
    56.4928     4821
    56.5584     3290
    56.6241     3041
    56.6898     2987
    56.7554     3071
    56.8211     3367
    56.8867     5036
    56.9524     8492
    57.0180     9604
    57.0837     6675
    57.1493     7880
    57.2150     8275
    57.2806     4496
    57.3463     4877
    57.4119     3897
    57.4776     3185
    57.5432     3112
    57.6089     3149
    57.6745     3226
    57.7402     4278
    57.8058     8681
    57.8715     5777
    57.9371     6224
    58.0028     6059
    58.0684     3712
    58.1341     3811
    58.1997     3228
    58.2654     3319
    58.3310     4382
    58.3967     7623
    58.4623     7071
    58.5280     5529
    58.5936     7981
    58.6593     9768
    58.7249     4897
    58.7906     6375
    58.8562     7753
    58.9219     9217
    58.9876     5017
    59.0532     5951
    59.1189     4499
    59.1845     3216
    59.2502     3143
    59.3158     2965
    59.3815     3058
    59.4471     3589
    59.5128     6056
    59.5784     8241
    59.6441     5302
    59.7097     6466
    59.7754     8033
    59.8410    10920
    59.9067     6918
    59.9723     6006
    60.0380     6497
    60.1036     3534
    60.1693     3022
    60.2349     2985
    60.3006     3077
    60.3662     3174
    60.4319     3367
    60.4975     4497
    60.5632    10484
    60.6288    11948
    60.6945     6989
    60.7601    10289
    60.8258     7285
    60.8914     4868
    60.9571     5546
    61.0227     5055
    61.0884     3585
    61.1540     3754
    61.2197     3096
    61.2854     2732
    61.3510     2709
    61.4167     2719
    61.4823     2564
    61.5480     2527
    61.6136     2533
    61.6793     2591
    61.7449     2509
    61.8106     2601
    61.8762     2519
    61.9419     2512
    62.0075     2541
    62.0732     2566
    62.1388     2607
    62.2045     2477
    62.2701     2512
    62.3358     2613
    62.4014     2619
    62.4671     2532
    62.5327     2563
    62.5984     2475
    62.6640     2473
    62.7297     2458
    62.7953     2516
    62.8610     2530
    62.9266     2440
    62.9923     2402
    63.0579     2486
    63.1236     2522
    63.1892     2683
    63.2549     2641
    63.3205     2686
    63.3862     2961
    63.4518     3819
    63.5175     3593
    63.5831     2939
    63.6488     3307
    63.7145     2882
    63.7801     2854
    63.8458     3655
    63.9114     4108
    63.9771     3151
    64.0427     3755
    64.1084     4297
    64.1740     3240
    64.2397     2963
    64.3053     3101
    64.3710     2679
    64.4366     2492
    64.5023     2444
    64.5679     2476
    64.6336     2495
    64.6992     2726
    64.7649     2672
    64.8305     2724
    64.8962     2678
    64.9618     2766
    65.0275     2691
    65.0931     2585
    65.1588     2361
    65.2244     2382
    65.2901     2360
    65.3557     2432
    65.4214     2432
    65.4870     2455
    65.5527     2535
    65.6183     2372
    65.6840     2416
    65.7496     2403
    65.8153     2316
    65.8810     2438
    65.9466     2420
    66.0123     2450
    66.0779     2458
    66.1436     2350
    66.2092     2423
    66.2749     2440
    66.3405     2493
    66.4062     2466
    66.4718     2500
    66.5375     2477
    66.6031     2446
    66.6688     2558
    66.7344     2481
    66.8001     2452
    66.8657     2449
    66.9314     2399
    66.9970     2471
    67.0627     2442
    67.1283     2450
    67.1940     2378
    67.2596     2393
    67.3253     2446
    67.3909     2464
    67.4566     2525
    67.5222     2418
    67.5879     2367
    67.6535     2403
    67.7192     2406
    67.7848     2424
    67.8505     2481
    67.9161     2681
    67.9818     3417
    68.0474     3446
    68.1131     3069
    68.1787     3404
    68.2444     3140
    68.3101     3127
    68.3757     4371
    68.4414     4365
    68.5070     2948
    68.5727     3553
    68.6383     3354
    68.7040     2666
    68.7696     2520
    68.8353     2584
    68.9009     2497
    68.9666     2563
    69.0322     2633
    69.0979     2865
    69.1635     3747
    69.2292     4445
    69.2948     3760
    69.3605     3579
    69.4261     3511
    69.4918     3327
    69.5574     3577
    69.6231     3101
    69.6887     3386
    69.7544     5453
    69.8200     7263
    69.8857     5260
    69.9513     4667
    70.0170     5276
    70.0826     4185
    70.1483     3142
    70.2139     3019
    70.2796     3054
    70.3452     3378
    70.4109     4997
    70.4765     4173
    70.5422     3324
    70.6078     4167
    70.6735     4723
    70.7392     4655
    70.8048     3988
    70.8705     3587
    70.9361     3761
    71.0018     3642
    71.0674     4833
    71.1331     3888
    71.1987     2947
    71.2644     3569
    71.3300     3347
    71.3957     2788
    71.4613     2731
    71.5270     3171
    71.5926     4435
    71.6583     4127
    71.7239     3779
    71.7896     3679
    71.8552     3385
    71.9209     3170
    71.9865     2741
    72.0522     2595
    72.1178     2599
    72.1835     2524
    72.2491     2665
    72.3148     2630
    72.3804     3258
    72.4461     4229
    72.5117     3097
    72.5774     2945
    72.6430     3445
    72.7087     2935
    72.7743     2683
    72.8400     2763
    72.9057     3442
    72.9713     4461
    73.0370     3531
    73.1026     3077
    73.1683     3686
    73.2339     3947
    73.2996     3843
    73.3652     3268
    73.4309     3375
    73.4965     3762
    73.5622     3193
    73.6278     3065
    73.6935     4338
    73.7591     5629
    73.8248     5394
    73.8904     3839
    73.9561     4027
    74.0217     3963
    74.0874     3182
    74.1530     2599
    74.2187     2611
    74.2843     2493
    74.3500     2542
    74.4156     2450
    74.4813     2488
    74.5469     2357
    74.6126     2487
    74.6782     2360
    74.7439     2350
    74.8095     2448
    74.8752     2271
    74.9408     2336
    75.0065     2390
    75.0722     2349
    75.1378     2432
    75.2035     2449
    75.2691     2477
    75.3348     2468
    75.4004     2513
    75.4661     2537
    75.5317     2507
    75.5974     2543
    75.6630     2521
    75.7287     2464
    75.7943     2470
    75.8600     2660
    75.9256     2834
    75.9913     2992
    76.0569     3303
    76.1226     4132
    76.1882     4877
    76.2539     3718
    76.3195     3345
    76.3852     3536
    76.4508     3139
    76.5165     2757
    76.5821     2664
    76.6478     2943
    76.7134     3817
    76.7791     4475
    76.8447     3726
    76.9104     3140
    76.9760     3385
    77.0417     3246
    77.1073     2786
    77.1730     2584
    77.2386     2526
    77.3043     2484
    77.3699     2528
    77.4356     2864
    77.5013     3163
    77.5669     2727
    77.6326     2636
    77.6982     2811
    77.7639     2697
    77.8295     2552
    77.8952     2597
    77.9608     2804
    78.0265     2799
    78.0921     2703
    78.1578     2787
    78.2234     3515
    78.2891     3476
    78.3547     3280
    78.4204     3140
    78.4860     3951
    78.5517     4412
    78.6173     4222
    78.6830     4152
    78.7486     4080
    78.8143     3479
    78.8799     3431
    78.9456     3258
    79.0112     2932
    79.0769     2725
    79.1425     2880
    79.2082     3360
    79.2738     4140
    79.3395     3320
    79.4051     3111
    79.4708     3495
    79.5364     3391
    79.6021     2944
    79.6677     2819
    79.7334     3009
    79.7990     3160
    79.8647     3831
    79.9304     4984
    79.9960     4201
    80.0617     3516
    80.1273     4427
    80.1930     5809
    80.2586     6060
    80.3243     5449
    80.3899     4537
    80.4556     5333
    80.5212     4892
    80.5869     4599
    80.6525     3830
    80.7182     3562
    80.7838     3389
    80.8495     3717
    80.9151     3482
    80.9808     3300
    81.0464     3165
    81.1121     2875
    81.1777     2841
    81.2434     2869
    81.3090     2632
    81.3747     2552
    81.4403     2546
    81.5060     2592
    81.5716     2599
    81.6373     2769
    81.7029     3121
    81.7686     3542
    81.8342     3575
    81.8999     3029
    81.9655     3131
    82.0312     3397
    82.0968     3438
    82.1625     2853
    82.2281     2736
    82.2938     2738
    82.3595     2923
    82.4251     3410
    82.4908     3474
    82.5564     2741
    82.6221     2743
    82.6877     3030
    82.7534     2920
    82.8190     2592
    82.8847     2606
    82.9503     2484
    83.0160     2584
    83.0816     2653
    83.1473     2759
    83.2129     2722
    83.2786     2781
    83.3442     2906
    83.4099     3454
    83.4755     3176
    83.5412     2726
    83.6068     2682
    83.6725     2817
    83.7381     2699
    83.8038     2392
    83.8694     2421
    83.9351     2373
    84.0007     2451
    84.0664     2392
    84.1320     2470
    84.1977     2391
    84.2633     2395
    84.3290     2641
    84.3946     2604
    84.4603     2462
    84.5260     2459
    84.5916     2464
    84.6573     2603
    84.7229     2455
    84.7886     2510
    84.8542     2550
    84.9199     2480
    84.9855     2575
    85.0512     2755
    85.1168     3058
    85.1825     3160
    85.2481     3267
    85.3138     3537
    85.3794     4207
    85.4451     4288
    85.5107     3579
    85.5764     3332
    85.6420     3278
    85.7077     3304
    85.7733     2766
    85.8390     2678
    85.9046     2582
    85.9703     2604
    86.0359     2601
    86.1016     3050
    86.1672     2778
    86.2329     2681
    86.2985     2588
    86.3642     2736
    86.4298     2741
    86.4955     2653
    86.5611     2808
    86.6268     3321
    86.6925     3137
    86.7581     2740
    86.8238     2613
    86.8894     2879
    86.9551     2860
    87.0207     2700
    87.0864     3043
    87.1520     3561
    87.2177     3275
    87.2833     2764
    87.3490     2700
    87.4146     3065
    87.4803     3038
    87.5459     2797
    87.6116     3052
    87.6772     3528
    87.7429     3090
    87.8085     2829
    87.8742     2852
    87.9398     3121
    88.0055     3070
    88.0711     3409
    88.1368     3830
    88.2024     3368
    88.2681     2951
    88.3337     2975
    88.3994     3228
    88.4650     2967
    88.5307     2744
    88.5963     2690
    88.6620     2595
    88.7276     2681
    88.7933     2591
    88.8589     2949
    88.9246     3244
    88.9902     2817
    89.0559     2738
    89.1216     2642
    89.1872     2973
    89.2529     2903
    89.3185     2873
    89.3842     2806
    89.4498     2648
    89.5155     2651
    89.5811     2659
    89.6468     2752
    89.7124     3076
    89.7781     3603
    89.8437     3128
    89.9094     3186
    89.9750     3426
    90.0407     3804
    90.1063     3530
    90.1720     3024
    90.2376     2911
    90.3033     3160
    90.3689     3541
    90.4346     3067
    90.5002     2823
    90.5659     2761
    90.6315     2917
    90.6972     2973
    90.7628     2901
    90.8285     3163
    90.8941     2880
    90.9598     2827
    91.0254     2879
    91.0911     3273
    91.1567     3650
    91.2224     3588
    91.2880     3000
    91.3537     2909
    91.4193     3355
    91.4850     3914
    91.5507     4264
    91.6163     3285
    91.6820     2955
    91.7476     2951
    91.8133     3336
    91.8789     3154
    91.9446     2649
    92.0102     2799
    92.0759     2722
    92.1415     3014
    92.2072     2948
    92.2728     2932
    92.3385     2985
    92.4041     3174
    92.4698     3792
    92.5354     3515
    92.6011     3059
    92.6667     2895
    92.7324     2863
    92.7980     3057
    92.8637     2737
    92.9293     2591
    92.9950     2449
    93.0606     2459
    93.1263     2493
    93.1919     2425
    93.2576     2366
    93.3232     2369
    93.3889     2454
    93.4545     2535
    93.5202     2555
    93.5858     3168
    93.6515     3047
    93.7171     2746
    93.7828     2816
    93.8484     3016
    93.9141     3034
    93.9798     2631
    94.0454     2621
    94.1111     2686
    94.1767     2673
    94.2424     2615
    94.3080     3032
    94.3737     3103
    94.4393     3165
    94.5050     3256
    94.5706     2952
    94.6363     2637
    94.7019     2782
    94.7676     2842
    94.8332     2700
    94.8989     2543
    94.9645     2423
    95.0302     2376
    95.0958     2447
    95.1615     2421
    95.2271     2425
    95.2928     2391
    95.3584     2367
    95.4241     2418
    95.4897     2431
    95.5554     2393
    95.6210     2346
    95.6867     2497
    95.7523     2433
    95.8180     2562
    95.8836     2514
    95.9493     2504
    96.0149     2529
    96.0806     2497
    96.1463     2591
    96.2119     2577
    96.2776     2579
    96.3432     2868
    96.4089     3474
    96.4745     3490
    96.5402     3231
    96.6058     3408
    96.6715     3437
    96.7371     3267
    96.8028     3141
    96.8684     2948
    96.9341     2902
    96.9997     2778
    97.0654     2583
    97.1310     2561
    97.1967     2594
    97.2623     2632
    97.3280     2968
    97.3936     3413
    97.4593     3509
    97.5249     2950
    97.5906     2784
    97.6562     2819
    97.7219     2948
    97.7875     2920
    97.8532     2645
    97.9188     2460
    97.9845     2546
    98.0501     2446
    98.1158     2623
    98.1814     2617
    98.2471     2828
    98.3128     3184
    98.3784     3331
    98.4441     3520
    98.5097     3788
    98.5754     3269
    98.6410     3163
    98.7067     3194
    98.7723     3568
    98.8380     4118
    98.9036     4057
    98.9693     4146
    99.0349     4668
    99.1006     4292
    99.1662     3894
    99.2319     3673
    99.2975     3311
    99.3632     3560
    99.4288     3398
    99.4945     3045
    99.5601     2756
    99.6258     2751
    99.6914     2776
    99.7571     3186
    99.8227     3146
    99.8884     2933
    99.9540     2844
    99.9934     2995