File: powder_X-ray_diffraction/variable-temperature_experiments/NaTaO2F2/raw_data/260°C.XY
! Initial file:   D:\ZAKARY_OUAIL\MA_THESE\Deuxième_année_de_thèse\DRX\Manips_DRX\1st_NaTaO2F2_XRK900\NaTaO2F2-Lent_260°C.xrdml
! Initial format:  58
! WAVE (A):      1.54060     1.54060     1.00000
! REM : data have been multiplied by     1.0000
! X_data : 2 Theta (deg.)
! Y_data : Intensity (arb. units)
!     X         Y
!--------------------------------------------------------------------------------
    10.0116     6282
    10.0772     6309
    10.1429     6351
    10.2086     6139
    10.2742     6271
    10.3399     6199
    10.4055     6307
    10.4712     6230
    10.5368     6013
    10.6025     5923
    10.6681     6102
    10.7338     6118
    10.7994     6296
    10.8651     6434
    10.9307     6966
    10.9964     9480
    11.0620    25238
    11.1277    47495
    11.1933    15389
    11.2590     6870
    11.3246     6321
    11.3903     6069
    11.4559     5978
    11.5216     5943
    11.5872     5873
    11.6529     5695
    11.7185     5751
    11.7842     5702
    11.8498     5764
    11.9155     5740
    11.9811     5674
    12.0468     5652
    12.1124     5595
    12.1781     5478
    12.2437     5537
    12.3094     5485
    12.3750     5595
    12.4407     5383
    12.5063     5495
    12.5720     5519
    12.6377     5496
    12.7033     5359
    12.7690     5494
    12.8346     5487
    12.9003     5422
    12.9659     5417
    13.0316     5303
    13.0972     5372
    13.1629     5422
    13.2285     5321
    13.2942     5424
    13.3598     5171
    13.4255     5233
    13.4911     5158
    13.5568     5356
    13.6224     5173
    13.6881     5079
    13.7537     5088
    13.8194     5202
    13.8850     4971
    13.9507     5182
    14.0163     5173
    14.0820     4921
    14.1476     5051
    14.2133     4936
    14.2789     4985
    14.3446     5042
    14.4102     4868
    14.4759     4835
    14.5415     4823
    14.6072     4942
    14.6728     4914
    14.7385     4878
    14.8041     4855
    14.8698     4795
    14.9355     4667
    15.0011     4928
    15.0668     4818
    15.1324     4742
    15.1981     4721
    15.2637     4731
    15.3294     4705
    15.3950     4657
    15.4607     4593
    15.5263     4668
    15.5920     4778
    15.6576     4727
    15.7233     4673
    15.7889     4637
    15.8546     4601
    15.9202     4532
    15.9859     4612
    16.0515     4688
    16.1172     4673
    16.1828     4841
    16.2485     4804
    16.3141     4684
    16.3798     4763
    16.4454     4561
    16.5111     4631
    16.5767     4471
    16.6424     4490
    16.7080     4568
    16.7737     4509
    16.8393     4453
    16.9050     4443
    16.9706     4440
    17.0363     4531
    17.1019     4569
    17.1676     4493
    17.2333     4496
    17.2989     4340
    17.3646     4458
    17.4302     4454
    17.4959     4334
    17.5615     4328
    17.6272     4410
    17.6928     4558
    17.7585     4619
    17.8241     4349
    17.8898     4236
    17.9554     4278
    18.0211     4250
    18.0867     4150
    18.1524     4316
    18.2180     4195
    18.2837     4199
    18.3493     4336
    18.4150     4157
    18.4806     4249
    18.5463     4039
    18.6119     4297
    18.6776     4201
    18.7432     4154
    18.8089     4205
    18.8745     4056
    18.9402     4242
    19.0058     4433
    19.0715     4462
    19.1371     4606
    19.2028     4682
    19.2684     4487
    19.3341     4713
    19.3997     5172
    19.4654     5826
    19.5311    10119
    19.5967    52206
    19.6624   115409
    19.7280    44248
    19.7937     9142
    19.8593     5618
    19.9250     4802
    19.9906     4407
    20.0563     4381
    20.1219     4498
    20.1876     4478
    20.2532     4310
    20.3189     4103
    20.3845     4050
    20.4502     4154
    20.5158     4046
    20.5815     3962
    20.6471     4051
    20.7128     3867
    20.7784     3992
    20.8441     3845
    20.9097     4046
    20.9754     3899
    21.0410     3852
    21.1067     3898
    21.1723     3844
    21.2380     3816
    21.3036     3793
    21.3693     3798
    21.4349     3887
    21.5006     3772
    21.5662     3782
    21.6319     3811
    21.6975     3894
    21.7632     3971
    21.8288     4130
    21.8945     3815
    21.9602     4032
    22.0258     3884
    22.0915     4005
    22.1571     4014
    22.2228     4354
    22.2884     8543
    22.3541    18513
    22.4197     9536
    22.4854     4269
    22.5510     3864
    22.6167     3850
    22.6823     3676
    22.7480     3930
    22.8136     3858
    22.8793     3780
    22.9449     3754
    23.0106     3538
    23.0762     3560
    23.1419     3504
    23.2075     3666
    23.2732     3655
    23.3388     3695
    23.4045     3809
    23.4701     3686
    23.5358     3802
    23.6014     3879
    23.6671     3844
    23.7327     3987
    23.7984     3915
    23.8640     3947
    23.9297     4301
    23.9953     4525
    24.0610     5326
    24.1266    12862
    24.1923    44854
    24.2580    30526
    24.3236    29786
    24.3893    44875
    24.4549    20094
    24.5206     5652
    24.5862     4267
    24.6519     3995
    24.7175     3825
    24.7832     3745
    24.8488     3764
    24.9145     3681
    24.9801     3880
    25.0458     3706
    25.1114     3685
    25.1771     3612
    25.2427     3535
    25.3084     3604
    25.3740     3621
    25.4397     3691
    25.5053     3610
    25.5710     3466
    25.6366     3648
    25.7023     3395
    25.7679     3543
    25.8336     3537
    25.8992     3494
    25.9649     3608
    26.0305     3422
    26.0962     3552
    26.1618     3662
    26.2275     3652
    26.2931     3487
    26.3588     3609
    26.4244     3519
    26.4901     3464
    26.5558     3457
    26.6214     3376
    26.6871     3473
    26.7527     3591
    26.8184     3630
    26.8840     3714
    26.9497     3587
    27.0153     3556
    27.0810     3657
    27.1466     3548
    27.2123     3677
    27.2779     3754
    27.3436     3837
    27.4092     4317
    27.4749     4796
    27.5405     6278
    27.6062    13073
    27.6718    74280
    27.7375    63915
    27.8031    23705
    27.8688     6451
    27.9344     4561
    28.0001     3942
    28.0657     3774
    28.1314     3638
    28.1970     3826
    28.2627     3749
    28.3283     3760
    28.3940     3613
    28.4596     3535
    28.5253     3601
    28.5909     3483
    28.6566     3514
    28.7222     3609
    28.7879     3588
    28.8536     3484
    28.9192     3627
    28.9849     3815
    29.0505     4143
    29.1162     4901
    29.1818    15271
    29.2475    30124
    29.3131    22837
    29.3788    21517
    29.4444    13243
    29.5101     5920
    29.5757     3779
    29.6414     3552
    29.7070     3376
    29.7727     3418
    29.8383     3348
    29.9040     3249
    29.9696     3404
    30.0353     3412
    30.1009     3367
    30.1666     3217
    30.2322     3347
    30.2979     3353
    30.3635     3284
    30.4292     3282
    30.4948     3304
    30.5605     3197
    30.6261     3170
    30.6918     3235
    30.7574     3111
    30.8231     3223
    30.8887     3188
    30.9544     3171
    31.0200     3242
    31.0857     3184
    31.1514     3193
    31.2170     3187
    31.2827     3068
    31.3483     3094
    31.4140     3134
    31.4796     3187
    31.5453     3150
    31.6109     3130
    31.6766     3159
    31.7422     3006
    31.8079     3175
    31.8735     3030
    31.9392     3161
    32.0048     3171
    32.0705     3134
    32.1361     3145
    32.2018     3252
    32.2674     3131
    32.3331     3311
    32.3987     3337
    32.4644     3636
    32.5300     3900
    32.5957    11010
    32.6613    15153
    32.7270    11864
    32.7926     4468
    32.8583     3589
    32.9239     3439
    32.9896     3651
    33.0552     4082
    33.1209     4766
    33.1865    13584
    33.2522    32976
    33.3178    21792
    33.3835     7982
    33.4492     4922
    33.5148     5466
    33.5805    15236
    33.6461    29935
    33.7118    20170
    33.7774    19578
    33.8431    10488
    33.9087     6967
    33.9744     3796
    34.0400     3341
    34.1057     3330
    34.1713     3316
    34.2370     3276
    34.3026     3248
    34.3683     3258
    34.4339     3524
    34.4996     4334
    34.5652    13677
    34.6309     9113
    34.6965     6758
    34.7622     3591
    34.8278     3134
    34.8935     3572
    34.9591     3352
    35.0248     3172
    35.0904     2991
    35.1561     3072
    35.2217     2924
    35.2874     2947
    35.3530     2964
    35.4187     3041
    35.4843     2857
    35.5500     2964
    35.6156     3054
    35.6813     2947
    35.7470     2902
    35.8126     2975
    35.8783     3021
    35.9439     2885
    36.0096     2996
    36.0752     2928
    36.1409     2940
    36.2065     2832
    36.2722     2977
    36.3378     2971
    36.4035     2871
    36.4691     3135
    36.5348     3115
    36.6004     3790
    36.6661     9263
    36.7317     5833
    36.7974     5200
    36.8630     3183
    36.9287     3053
    36.9943     3036
    37.0600     3184
    37.1256     3153
    37.1913     4059
    37.2569     9470
    37.3226     7323
    37.3882     6003
    37.4539     3292
    37.5195     3217
    37.5852     3696
    37.6508     3395
    37.7165     2962
    37.7821     2920
    37.8478     2864
    37.9134     2779
    37.9791     2715
    38.0448     2762
    38.1104     2775
    38.1761     2735
    38.2417     2759
    38.3074     2760
    38.3730     2803
    38.4387     2812
    38.5043     2761
    38.5700     2831
    38.6356     2813
    38.7013     2815
    38.7669     2739
    38.8326     2788
    38.8982     2776
    38.9639     2836
    39.0295     2715
    39.0952     2788
    39.1608     2787
    39.2265     2707
    39.2921     2735
    39.3578     2631
    39.4234     2747
    39.4891     2830
    39.5547     3331
    39.6204     4705
    39.6860     3893
    39.7517     3647
    39.8173     3404
    39.8830     6593
    39.9486     5859
    40.0143     5565
    40.0799     3561
    40.1456     3296
    40.2112     3440
    40.2769     7413
    40.3425     7287
    40.4082     6889
    40.4739     3762
    40.5395     3042
    40.6052     3002
    40.6708     3075
    40.7365     3415
    40.8021     5652
    40.8678    11287
    40.9334     7375
    40.9991    10563
    41.0647    11429
    41.1304    15157
    41.1960     9185
    41.2617     7721
    41.3273     3845
    41.3930     3045
    41.4586     2858
    41.5243     2778
    41.5899     2871
    41.6556     2802
    41.7212     2747
    41.7869     2665
    41.8525     2696
    41.9182     2698
    41.9838     2738
    42.0495     2629
    42.1151     2724
    42.1808     2761
    42.2464     2639
    42.3121     2621
    42.3777     2699
    42.4434     2633
    42.5090     2665
    42.5747     2727
    42.6404     2539
    42.7060     2672
    42.7717     2743
    42.8373     2777
    42.9030     2608
    42.9686     2677
    43.0343     2712
    43.0999     2675
    43.1656     2666
    43.2312     2739
    43.2969     3321
    43.3625     2985
    43.4282     3139
    43.4938     2705
    43.5595     2734
    43.6251     2712
    43.6908     2642
    43.7564     2681
    43.8221     2743
    43.8877     2670
    43.9534     2793
    44.0190     2807
    44.0847     3776
    44.1503     3587
    44.2160     3438
    44.2816     3196
    44.3473     3420
    44.4129     5437
    44.4786     4187
    44.5442     4075
    44.6099     3120
    44.6755     2673
    44.7412     2736
    44.8068     2831
    44.8725     2715
    44.9381     2662
    45.0038     2641
    45.0695     2648
    45.1351     2575
    45.2008     2773
    45.2664     2721
    45.3321     2769
    45.3977     2907
    45.4634     3032
    45.5290     4138
    45.5947    11633
    45.6603     4956
    45.7260     7269
    45.7916     3198
    45.8573     2857
    45.9229     2748
    45.9886     2739
    46.0542     2798
    46.1199     2829
    46.1855     2975
    46.2512     3678
    46.3168     7179
    46.3825     3931
    46.4481     4787
    46.5138     3226
    46.5794     2893
    46.6451     2758
    46.7107     2832
    46.7764     2898
    46.8420     3058
    46.9077     3393
    46.9733     6330
    47.0390     8015
    47.1046     5378
    47.1703     5031
    47.2359     3108
    47.3016     3114
    47.3673     3092
    47.4329     3159
    47.4986     3533
    47.5642     4195
    47.6299     9201
    47.6955    20044
    47.7612    10067
    47.8268    11517
    47.8925     4876
    47.9581     3464
    48.0238     3249
    48.0894     3175
    48.1551     3400
    48.2207     4201
    48.2864    11892
    48.3520    12943
    48.4177     9614
    48.4833     7928
    48.5490     4556
    48.6146     5340
    48.6803    13397
    48.7459     6548
    48.8116     8248
    48.8772     4410
    48.9429     3261
    49.0085     3004
    49.0742     2923
    49.1398     2932
    49.2055     2754
    49.2711     3007
    49.3368     3368
    49.4024     3355
    49.4681     3306
    49.5337     3646
    49.5994     3392
    49.6651     3495
    49.7307     3692
    49.7964     4612
    49.8620    12349
    49.9277    15554
    49.9933    10247
    50.0590     9661
    50.1246     4968
    50.1903     3697
    50.2559     3935
    50.3216     7294
    50.3872    11263
    50.4529     6487
    50.5185     7238
    50.5842     3861
    50.6498     3133
    50.7155     3086
    50.7811     2915
    50.8468     2948
    50.9124     2887
    50.9781     2906
    51.0437     3025
    51.1094     3078
    51.1750     3752
    51.2407     8933
    51.3063     4810
    51.3720     5929
    51.4376     4160
    51.5033     3532
    51.5689     3127
    51.6346     3232
    51.7002     2837
    51.7659     2894
    51.8315     2743
    51.8972     2819
    51.9628     2795
    52.0285     2698
    52.0942     2807
    52.1598     2843
    52.2255     3001
    52.2911     3073
    52.3568     3394
    52.4224     6608
    52.4881    10415
    52.5537     6130
    52.6194     6938
    52.6850     4517
    52.7507     4044
    52.8163     5964
    52.8820     5810
    52.9476     4437
    53.0133     4302
    53.0789     3115
    53.1446     2750
    53.2102     2760
    53.2759     2850
    53.3415     2818
    53.4072     2909
    53.4728     3782
    53.5385     3832
    53.6041     3203
    53.6698     3412
    53.7354     2863
    53.8011     2861
    53.8667     2758
    53.9324     2809
    53.9980     2729
    54.0637     2672
    54.1293     2841
    54.1950     3024
    54.2607     3045
    54.3263     2880
    54.3920     2915
    54.4576     2759
    54.5233     2681
    54.5889     2804
    54.6546     2744
    54.7202     2756
    54.7859     2574
    54.8515     2642
    54.9172     2860
    54.9828     2853
    55.0485     2933
    55.1141     3246
    55.1798     4069
    55.2454     9334
    55.3111     8368
    55.3767     5885
    55.4424     7034
    55.5080     3923
    55.5737     3662
    55.6393     3226
    55.7050     3003
    55.7706     2940
    55.8363     2944
    55.9019     2854
    55.9676     2991
    56.0332     3162
    56.0989     3745
    56.1645     6677
    56.2302     9936
    56.2958    12302
    56.3615     6789
    56.4271     7987
    56.4928     4648
    56.5584     3177
    56.6241     3053
    56.6898     3055
    56.7554     3044
    56.8211     3690
    56.8867     6205
    56.9524     9199
    57.0180     8686
    57.0837     6732
    57.1493     8332
    57.2150     7109
    57.2806     4381
    57.3463     4947
    57.4119     3680
    57.4776     3094
    57.5432     2987
    57.6089     3015
    57.6745     3312
    57.7402     4644
    57.8058     9207
    57.8715     5458
    57.9371     6749
    58.0028     5401
    58.0684     3898
    58.1341     3681
    58.1997     3383
    58.2654     3627
    58.3310     5027
    58.3967     8518
    58.4623     5917
    58.5280     5949
    58.5936     8892
    58.6593     7998
    58.7249     4817
    58.7906     6886
    58.8562     8782
    58.9219     7536
    58.9876     4996
    59.0532     6193
    59.1189     3848
    59.1845     3146
    59.2502     2971
    59.3158     3091
    59.3815     3136
    59.4471     3872
    59.5128     6802
    59.5784     7660
    59.6441     5106
    59.7097     6918
    59.7754     7727
    59.8410    11293
    59.9067     6418
    59.9723     6071
    60.0380     5948
    60.1036     3495
    60.1693     3044
    60.2349     3064
    60.3006     3184
    60.3662     3258
    60.4319     3514
    60.4975     5294
    60.5632    12876
    60.6288    10388
    60.6945     7541
    60.7601    10274
    60.8258     6296
    60.8914     4900
    60.9571     5403
    61.0227     4442
    61.0884     3551
    61.1540     3631
    61.2197     2801
    61.2854     2689
    61.3510     2609
    61.4167     2607
    61.4823     2610
    61.5480     2680
    61.6136     2601
    61.6793     2665
    61.7449     2674
    61.8106     2525
    61.8762     2604
    61.9419     2579
    62.0075     2570
    62.0732     2489
    62.1388     2500
    62.2045     2476
    62.2701     2522
    62.3358     2616
    62.4014     2557
    62.4671     2576
    62.5327     2496
    62.5984     2501
    62.6640     2372
    62.7297     2615
    62.7953     2565
    62.8610     2540
    62.9266     2445
    62.9923     2587
    63.0579     2532
    63.1236     2512
    63.1892     2599
    63.2549     2728
    63.3205     2812
    63.3862     3108
    63.4518     3994
    63.5175     3330
    63.5831     3097
    63.6488     3320
    63.7145     2915
    63.7801     3005
    63.8458     4020
    63.9114     3712
    63.9771     3158
    64.0427     3856
    64.1084     4143
    64.1740     3073
    64.2397     2994
    64.3053     3123
    64.3710     2740
    64.4366     2492
    64.5023     2487
    64.5679     2500
    64.6336     2492
    64.6992     2706
    64.7649     2831
    64.8305     2807
    64.8962     2713
    64.9618     2724
    65.0275     2602
    65.0931     2503
    65.1588     2530
    65.2244     2447
    65.2901     2379
    65.3557     2329
    65.4214     2420
    65.4870     2410
    65.5527     2442
    65.6183     2422
    65.6840     2405
    65.7496     2510
    65.8153     2475
    65.8810     2400
    65.9466     2432
    66.0123     2463
    66.0779     2458
    66.1436     2464
    66.2092     2416
    66.2749     2526
    66.3405     2511
    66.4062     2459
    66.4718     2486
    66.5375     2476
    66.6031     2587
    66.6688     2592
    66.7344     2455
    66.8001     2447
    66.8657     2470
    66.9314     2464
    66.9970     2406
    67.0627     2462
    67.1283     2361
    67.1940     2465
    67.2596     2384
    67.3253     2410
    67.3909     2446
    67.4566     2354
    67.5222     2433
    67.5879     2486
    67.6535     2394
    67.7192     2410
    67.7848     2540
    67.8505     2551
    67.9161     2648
    67.9818     3469
    68.0474     3400
    68.1131     3166
    68.1787     3287
    68.2444     3180
    68.3101     3560
    68.3757     5132
    68.4414     3598
    68.5070     2999
    68.5727     3797
    68.6383     2977
    68.7040     2531
    68.7696     2512
    68.8353     2483
    68.9009     2461
    68.9666     2535
    69.0322     2599
    69.0979     2925
    69.1635     4004
    69.2292     4200
    69.2948     3653
    69.3605     3614
    69.4261     3566
    69.4918     3578
    69.5574     3304
    69.6231     3088
    69.6887     3773
    69.7544     6052
    69.8200     7063
    69.8857     4758
    69.9513     4588
    70.0170     5475
    70.0826     3859
    70.1483     3085
    70.2139     2997
    70.2796     3019
    70.3452     3525
    70.4109     5207
    70.4765     4054
    70.5422     3421
    70.6078     4464
    70.6735     4977
    70.7392     4553
    70.8048     3732
    70.8705     3612
    70.9361     3761
    71.0018     3402
    71.0674     5119
    71.1331     3388
    71.1987     3132
    71.2644     3651
    71.3300     3128
    71.3957     2793
    71.4613     2859
    71.5270     3420
    71.5926     4859
    71.6583     3995
    71.7239     3501
    71.7896     3733
    71.8552     3366
    71.9209     2991
    71.9865     2625
    72.0522     2582
    72.1178     2628
    72.1835     2538
    72.2491     2593
    72.3148     2858
    72.3804     3640
    72.4461     3997
    72.5117     3014
    72.5774     3008
    72.6430     3445
    72.7087     2756
    72.7743     2702
    72.8400     2834
    72.9057     3858
    72.9713     4237
    73.0370     3130
    73.1026     3210
    73.1683     3973
    73.2339     3989
    73.2996     3655
    73.3652     3072
    73.4309     3764
    73.4965     3606
    73.5622     3077
    73.6278     3425
    73.6935     5189
    73.7591     5551
    73.8248     4593
    73.8904     3859
    73.9561     4082
    74.0217     3667
    74.0874     2872
    74.1530     2538
    74.2187     2483
    74.2843     2477
    74.3500     2436
    74.4156     2393
    74.4813     2460
    74.5469     2523
    74.6126     2456
    74.6782     2436
    74.7439     2446
    74.8095     2510
    74.8752     2385
    74.9408     2441
    75.0065     2434
    75.0722     2443
    75.1378     2406
    75.2035     2412
    75.2691     2534
    75.3348     2488
    75.4004     2470
    75.4661     2493
    75.5317     2481
    75.5974     2574
    75.6630     2490
    75.7287     2484
    75.7943     2661
    75.8600     2757
    75.9256     2872
    75.9913     3175
    76.0569     3459
    76.1226     4542
    76.1882     4599
    76.2539     3471
    76.3195     3446
    76.3852     3639
    76.4508     3176
    76.5165     2890
    76.5821     2795
    76.6478     3259
    76.7134     4242
    76.7791     4474
    76.8447     3287
    76.9104     3355
    76.9760     3440
    77.0417     3094
    77.1073     2607
    77.1730     2495
    77.2386     2569
    77.3043     2588
    77.3699     2640
    77.4356     2904
    77.5013     3202
    77.5669     2700
    77.6326     2573
    77.6982     2884
    77.7639     2823
    77.8295     2575
    77.8952     2538
    77.9608     2914
    78.0265     2892
    78.0921     2738
    78.1578     3003
    78.2234     3509
    78.2891     3689
    78.3547     3330
    78.4204     3422
    78.4860     4330
    78.5517     4314
    78.6173     4250
    78.6830     4065
    78.7486     3940
    78.8143     3443
    78.8799     3374
    78.9456     3098
    79.0112     2863
    79.0769     2733
    79.1425     2982
    79.2082     3416
    79.2738     3871
    79.3395     3202
    79.4051     3333
    79.4708     3513
    79.5364     3230
    79.6021     2817
    79.6677     2886
    79.7334     2909
    79.7990     3366
    79.8647     4380
    79.9304     4706
    79.9960     3679
    80.0617     3600
    80.1273     4765
    80.1930     5761
    80.2586     5730
    80.3243     5374
    80.3899     5114
    80.4556     5283
    80.5212     5010
    80.5869     4376
    80.6525     3765
    80.7182     3385
    80.7838     3600
    80.8495     3710
    80.9151     3430
    80.9808     3431
    81.0464     3018
    81.1121     2824
    81.1777     2932
    81.2434     2734
    81.3090     2625
    81.3747     2563
    81.4403     2583
    81.5060     2548
    81.5716     2554
    81.6373     2991
    81.7029     3377
    81.7686     3675
    81.8342     3228
    81.8999     2934
    81.9655     3229
    82.0312     3440
    82.0968     3175
    82.1625     2852
    82.2281     2587
    82.2938     2911
    82.3595     2972
    82.4251     3515
    82.4908     3381
    82.5564     2729
    82.6221     2646
    82.6877     3020
    82.7534     2783
    82.8190     2634
    82.8847     2536
    82.9503     2485
    83.0160     2639
    83.0816     2641
    83.1473     2748
    83.2129     2761
    83.2786     2750
    83.3442     2981
    83.4099     3540
    83.4755     2853
    83.5412     2604
    83.6068     2781
    83.6725     2912
    83.7381     2518
    83.8038     2437
    83.8694     2466
    83.9351     2448
    84.0007     2367
    84.0664     2396
    84.1320     2398
    84.1977     2420
    84.2633     2552
    84.3290     2624
    84.3946     2602
    84.4603     2435
    84.5260     2467
    84.5916     2506
    84.6573     2505
    84.7229     2473
    84.7886     2540
    84.8542     2437
    84.9199     2469
    84.9855     2680
    85.0512     2964
    85.1168     2942
    85.1825     3303
    85.2481     3291
    85.3138     3824
    85.3794     4346
    85.4451     3945
    85.5107     3304
    85.5764     3228
    85.6420     3378
    85.7077     2958
    85.7733     2844
    85.8390     2596
    85.9046     2497
    85.9703     2663
    86.0359     2890
    86.1016     3097
    86.1672     2817
    86.2329     2612
    86.2985     2652
    86.3642     2797
    86.4298     2732
    86.4955     2764
    86.5611     2930
    86.6268     3315
    86.6925     2880
    86.7581     2661
    86.8238     2723
    86.8894     2935
    86.9551     2726
    87.0207     2856
    87.0864     3285
    87.1520     3521
    87.2177     2929
    87.2833     2750
    87.3490     2863
    87.4146     2980
    87.4803     2821
    87.5459     2767
    87.6116     3023
    87.6772     3532
    87.7429     2975
    87.8085     2792
    87.8742     2832
    87.9398     3153
    88.0055     3197
    88.0711     3637
    88.1368     3712
    88.2024     3001
    88.2681     2901
    88.3337     3195
    88.3994     3293
    88.4650     2932
    88.5307     2658
    88.5963     2663
    88.6620     2622
    88.7276     2668
    88.7933     2679
    88.8589     2989
    88.9246     3199
    88.9902     2839
    89.0559     2747
    89.1216     2750
    89.1872     2987
    89.2529     2950
    89.3185     2820
    89.3842     2650
    89.4498     2657
    89.5155     2625
    89.5811     2777
    89.6468     2867
    89.7124     3050
    89.7781     3717
    89.8437     3145
    89.9094     3107
    89.9750     3594
    90.0407     3723
    90.1063     3468
    90.1720     3052
    90.2376     3160
    90.3033     3530
    90.3689     3278
    90.4346     2746
    90.5002     2746
    90.5659     2999
    90.6315     3239
    90.6972     2973
    90.7628     3002
    90.8285     3091
    90.8941     2769
    90.9598     2834
    91.0254     2999
    91.0911     3458
    91.1567     3623
    91.2224     3289
    91.2880     2930
    91.3537     3035
    91.4193     3376
    91.4850     4140
    91.5507     3971
    91.6163     3119
    91.6820     2925
    91.7476     3094
    91.8133     3420
    91.8789     2892
    91.9446     2792
    92.0102     2768
    92.0759     2968
    92.1415     2936
    92.2072     2873
    92.2728     2983
    92.3385     3042
    92.4041     3363
    92.4698     3717
    92.5354     3263
    92.6011     2862
    92.6667     2835
    92.7324     2993
    92.7980     2921
    92.8637     2625
    92.9293     2568
    92.9950     2505
    93.0606     2427
    93.1263     2393
    93.1919     2374
    93.2576     2449
    93.3232     2510
    93.3889     2593
    93.4545     2574
    93.5202     2883
    93.5858     3066
    93.6515     2767
    93.7171     2718
    93.7828     2877
    93.8484     2896
    93.9141     2737
    93.9798     2712
    94.0454     2606
    94.1111     2733
    94.1767     2672
    94.2424     2875
    94.3080     3134
    94.3737     3128
    94.4393     3256
    94.5050     2992
    94.5706     2797
    94.6363     2805
    94.7019     2753
    94.7676     2887
    94.8332     2598
    94.8989     2614
    94.9645     2424
    95.0302     2475
    95.0958     2475
    95.1615     2430
    95.2271     2409
    95.2928     2487
    95.3584     2410
    95.4241     2403
    95.4897     2539
    95.5554     2393
    95.6210     2416
    95.6867     2458
    95.7523     2570
    95.8180     2552
    95.8836     2622
    95.9493     2351
    96.0149     2433
    96.0806     2542
    96.1463     2540
    96.2119     2548
    96.2776     2684
    96.3432     3291
    96.4089     3630
    96.4745     3234
    96.5402     3317
    96.6058     3445
    96.6715     3300
    96.7371     3070
    96.8028     2963
    96.8684     3055
    96.9341     2853
    96.9997     2604
    97.0654     2573
    97.1310     2570
    97.1967     2586
    97.2623     2866
    97.3280     3216
    97.3936     3518
    97.4593     3197
    97.5249     2879
    97.5906     2755
    97.6562     2936
    97.7219     2903
    97.7875     2790
    97.8532     2694
    97.9188     2551
    97.9845     2540
    98.0501     2612
    98.1158     2645
    98.1814     2911
    98.2471     3052
    98.3128     3286
    98.3784     3290
    98.4441     3742
    98.5097     3661
    98.5754     3222
    98.6410     3115
    98.7067     3323
    98.7723     3668
    98.8380     4138
    98.9036     4125
    98.9693     4309
    99.0349     4580
    99.1006     4210
    99.1662     3811
    99.2319     3422
    99.2975     3344
    99.3632     3481
    99.4288     3276
    99.4945     2894
    99.5601     2774
    99.6258     2724
    99.6914     2759
    99.7571     3384
    99.8227     3064
    99.8884     2996
    99.9540     2944
    99.9934     2945