File: powder_X-ray_diffraction/variable-temperature_experiments/NaTaO2F2/raw_data/270°C.XY
! Initial file:   D:\ZAKARY_OUAIL\MA_THESE\Deuxième_année_de_thèse\DRX\Manips_DRX\1st_NaTaO2F2_XRK900\NaTaO2F2-Lent_270°C.xrdml
! Initial format:  58
! WAVE (A):      1.54060     1.54060     1.00000
! REM : data have been multiplied by     1.0000
! X_data : 2 Theta (deg.)
! Y_data : Intensity (arb. units)
!     X         Y
!--------------------------------------------------------------------------------
    10.0116     6289
    10.0772     6347
    10.1429     6257
    10.2086     6225
    10.2742     6241
    10.3399     5945
    10.4055     6018
    10.4712     6171
    10.5368     6086
    10.6025     5998
    10.6681     6048
    10.7338     6262
    10.7994     6330
    10.8651     6447
    10.9307     6841
    10.9964     9477
    11.0620    25467
    11.1277    47678
    11.1933    14373
    11.2590     6784
    11.3246     6340
    11.3903     5889
    11.4559     5905
    11.5216     5924
    11.5872     5754
    11.6529     5853
    11.7185     5659
    11.7842     5720
    11.8498     5622
    11.9155     5584
    11.9811     5673
    12.0468     5779
    12.1124     5480
    12.1781     5551
    12.2437     5598
    12.3094     5528
    12.3750     5508
    12.4407     5355
    12.5063     5580
    12.5720     5324
    12.6377     5331
    12.7033     5437
    12.7690     5405
    12.8346     5244
    12.9003     5239
    12.9659     5230
    13.0316     5234
    13.0972     5249
    13.1629     5225
    13.2285     5367
    13.2942     5198
    13.3598     5230
    13.4255     5188
    13.4911     5165
    13.5568     5247
    13.6224     5192
    13.6881     4967
    13.7537     5078
    13.8194     5009
    13.8850     5022
    13.9507     4977
    14.0163     4947
    14.0820     4985
    14.1476     4854
    14.2133     4967
    14.2789     5033
    14.3446     5003
    14.4102     4787
    14.4759     4906
    14.5415     4907
    14.6072     4873
    14.6728     4867
    14.7385     4717
    14.8041     4849
    14.8698     4802
    14.9355     4767
    15.0011     4768
    15.0668     4780
    15.1324     4725
    15.1981     4731
    15.2637     4757
    15.3294     4760
    15.3950     4603
    15.4607     4639
    15.5263     4723
    15.5920     4719
    15.6576     4655
    15.7233     4714
    15.7889     4680
    15.8546     4735
    15.9202     4617
    15.9859     4636
    16.0515     4733
    16.1172     4617
    16.1828     4717
    16.2485     4726
    16.3141     4782
    16.3798     4796
    16.4454     4569
    16.5111     4638
    16.5767     4428
    16.6424     4499
    16.7080     4535
    16.7737     4474
    16.8393     4512
    16.9050     4547
    16.9706     4325
    17.0363     4535
    17.1019     4398
    17.1676     4530
    17.2333     4639
    17.2989     4410
    17.3646     4364
    17.4302     4401
    17.4959     4452
    17.5615     4520
    17.6272     4210
    17.6928     4439
    17.7585     4504
    17.8241     4349
    17.8898     4193
    17.9554     4306
    18.0211     4294
    18.0867     4228
    18.1524     4100
    18.2180     4236
    18.2837     4171
    18.3493     4269
    18.4150     4270
    18.4806     4205
    18.5463     4162
    18.6119     4082
    18.6776     4230
    18.7432     4069
    18.8089     4064
    18.8745     4156
    18.9402     4231
    19.0058     4516
    19.0715     4499
    19.1371     4497
    19.2028     4374
    19.2684     4587
    19.3341     4758
    19.3997     5051
    19.4654     6052
    19.5311    10933
    19.5967    59138
    19.6624   112705
    19.7280    39414
    19.7937     8442
    19.8593     5450
    19.9250     4758
    19.9906     4483
    20.0563     4297
    20.1219     4427
    20.1876     4438
    20.2532     4142
    20.3189     4097
    20.3845     4053
    20.4502     4172
    20.5158     4035
    20.5815     4194
    20.6471     4080
    20.7128     3987
    20.7784     3927
    20.8441     3926
    20.9097     3939
    20.9754     3864
    21.0410     3941
    21.1067     3928
    21.1723     3946
    21.2380     3850
    21.3036     3887
    21.3693     3865
    21.4349     3869
    21.5006     3819
    21.5662     3834
    21.6319     3813
    21.6975     3904
    21.7632     4025
    21.8288     4101
    21.8945     3925
    21.9602     4039
    22.0258     3946
    22.0915     3887
    22.1571     3942
    22.2228     4356
    22.2884     8839
    22.3541    18015
    22.4197     8937
    22.4854     4327
    22.5510     3898
    22.6167     3882
    22.6823     3655
    22.7480     3773
    22.8136     3825
    22.8793     3739
    22.9449     3701
    23.0106     3657
    23.0762     3593
    23.1419     3538
    23.2075     3638
    23.2732     3641
    23.3388     3692
    23.4045     3650
    23.4701     3777
    23.5358     3808
    23.6014     3949
    23.6671     3872
    23.7327     3844
    23.7984     3902
    23.8640     4016
    23.9297     4287
    23.9953     4524
    24.0610     5231
    24.1266    13250
    24.1923    44390
    24.2580    29387
    24.3236    33121
    24.3893    43570
    24.4549    18162
    24.5206     5405
    24.5862     4205
    24.6519     3828
    24.7175     3850
    24.7832     3668
    24.8488     3745
    24.9145     3750
    24.9801     3880
    25.0458     3733
    25.1114     3696
    25.1771     3598
    25.2427     3570
    25.3084     3676
    25.3740     3537
    25.4397     3654
    25.5053     3522
    25.5710     3475
    25.6366     3576
    25.7023     3489
    25.7679     3521
    25.8336     3452
    25.8992     3509
    25.9649     3382
    26.0305     3506
    26.0962     3684
    26.1618     3706
    26.2275     3622
    26.2931     3511
    26.3588     3570
    26.4244     3525
    26.4901     3387
    26.5558     3490
    26.6214     3406
    26.6871     3363
    26.7527     3662
    26.8184     3589
    26.8840     3575
    26.9497     3629
    27.0153     3612
    27.0810     3816
    27.1466     3739
    27.2123     3586
    27.2779     3695
    27.3436     3876
    27.4092     4234
    27.4749     4955
    27.5405     6404
    27.6062    14733
    27.6718    81270
    27.7375    62484
    27.8031    20720
    27.8688     6220
    27.9344     4468
    28.0001     3906
    28.0657     3757
    28.1314     3726
    28.1970     3758
    28.2627     3882
    28.3283     3652
    28.3940     3642
    28.4596     3553
    28.5253     3575
    28.5909     3609
    28.6566     3415
    28.7222     3455
    28.7879     3647
    28.8536     3543
    28.9192     3751
    28.9849     3857
    29.0505     4057
    29.1162     5182
    29.1818    17323
    29.2475    29174
    29.3131    22835
    29.3788    21035
    29.4444    12520
    29.5101     5141
    29.5757     3812
    29.6414     3465
    29.7070     3448
    29.7727     3424
    29.8383     3198
    29.9040     3473
    29.9696     3399
    30.0353     3289
    30.1009     3344
    30.1666     3330
    30.2322     3338
    30.2979     3432
    30.3635     3198
    30.4292     3295
    30.4948     3237
    30.5605     3240
    30.6261     3185
    30.6918     3132
    30.7574     3009
    30.8231     3299
    30.8887     3312
    30.9544     3167
    31.0200     3221
    31.0857     3208
    31.1514     3120
    31.2170     3049
    31.2827     3172
    31.3483     3148
    31.4140     3216
    31.4796     3184
    31.5453     3130
    31.6109     3097
    31.6766     3126
    31.7422     3136
    31.8079     3192
    31.8735     2983
    31.9392     3100
    32.0048     3052
    32.0705     3115
    32.1361     3144
    32.2018     3186
    32.2674     3143
    32.3331     3301
    32.3987     3430
    32.4644     3779
    32.5300     4275
    32.5957    15168
    32.6613    12950
    32.7270    10214
    32.7926     4174
    32.8583     3484
    32.9239     3468
    32.9896     3744
    33.0552     4013
    33.1209     4829
    33.1865    14951
    33.2522    32345
    33.3178    21561
    33.3835     7433
    33.4492     5010
    33.5148     5905
    33.5805    18972
    33.6461    28362
    33.7118    19785
    33.7774    18822
    33.8431    10078
    33.9087     6520
    33.9744     3639
    34.0400     3410
    34.1057     3345
    34.1713     3180
    34.2370     3187
    34.3026     3283
    34.3683     3485
    34.4339     3564
    34.4996     4816
    34.5652    14668
    34.6309     9161
    34.6965     5683
    34.7622     3501
    34.8278     3136
    34.8935     3494
    34.9591     3343
    35.0248     3118
    35.0904     3072
    35.1561     3071
    35.2217     2875
    35.2874     2916
    35.3530     3029
    35.4187     3031
    35.4843     2969
    35.5500     2959
    35.6156     2918
    35.6813     2964
    35.7470     2971
    35.8126     2952
    35.8783     2843
    35.9439     2861
    36.0096     2970
    36.0752     3025
    36.1409     2823
    36.2065     2991
    36.2722     2941
    36.3378     2833
    36.4035     2977
    36.4691     3028
    36.5348     3093
    36.6004     3765
    36.6661     9227
    36.7317     5837
    36.7974     5142
    36.8630     3195
    36.9287     3089
    36.9943     2969
    37.0600     3151
    37.1256     3261
    37.1913     4513
    37.2569    10076
    37.3226     6882
    37.3882     5390
    37.4539     3210
    37.5195     3338
    37.5852     3452
    37.6508     3441
    37.7165     2995
    37.7821     2854
    37.8478     2822
    37.9134     2681
    37.9791     2803
    38.0448     2755
    38.1104     2716
    38.1761     2782
    38.2417     2749
    38.3074     2766
    38.3730     2806
    38.4387     2725
    38.5043     2670
    38.5700     2954
    38.6356     2679
    38.7013     2772
    38.7669     2734
    38.8326     2759
    38.8982     2834
    38.9639     2783
    39.0295     2745
    39.0952     2754
    39.1608     2724
    39.2265     2731
    39.2921     2694
    39.3578     2815
    39.4234     2744
    39.4891     2830
    39.5547     3520
    39.6204     4659
    39.6860     3843
    39.7517     3587
    39.8173     3425
    39.8830     7575
    39.9486     5418
    40.0143     5308
    40.0799     3424
    40.1456     3109
    40.2112     3487
    40.2769     7993
    40.3425     7027
    40.4082     6910
    40.4739     3643
    40.5395     3013
    40.6052     3031
    40.6708     3136
    40.7365     3626
    40.8021     6768
    40.8678    10660
    40.9334     7948
    40.9991    11473
    41.0647    10611
    41.1304    16716
    41.1960     8263
    41.2617     7086
    41.3273     3504
    41.3930     2890
    41.4586     2819
    41.5243     2744
    41.5899     2824
    41.6556     2742
    41.7212     2779
    41.7869     2704
    41.8525     2715
    41.9182     2726
    41.9838     2677
    42.0495     2748
    42.1151     2675
    42.1808     2764
    42.2464     2710
    42.3121     2771
    42.3777     2688
    42.4434     2647
    42.5090     2729
    42.5747     2718
    42.6404     2722
    42.7060     2560
    42.7717     2713
    42.8373     2796
    42.9030     2702
    42.9686     2749
    43.0343     2670
    43.0999     2679
    43.1656     2754
    43.2312     2789
    43.2969     3186
    43.3625     2980
    43.4282     2987
    43.4938     2663
    43.5595     2660
    43.6251     2566
    43.6908     2718
    43.7564     2772
    43.8221     2703
    43.8877     2690
    43.9534     2730
    44.0190     2937
    44.0847     3957
    44.1503     3424
    44.2160     3535
    44.2816     3124
    44.3473     3642
    44.4129     5426
    44.4786     3961
    44.5442     3817
    44.6099     2973
    44.6755     2677
    44.7412     2714
    44.8068     2782
    44.8725     2580
    44.9381     2688
    45.0038     2549
    45.0695     2725
    45.1351     2730
    45.2008     2687
    45.2664     2734
    45.3321     2804
    45.3977     2947
    45.4634     3069
    45.5290     4574
    45.5947    11607
    45.6603     4964
    45.7260     6614
    45.7916     3038
    45.8573     2781
    45.9229     2741
    45.9886     2836
    46.0542     2896
    46.1199     2826
    46.1855     3003
    46.2512     3688
    46.3168     7213
    46.3825     3967
    46.4481     4945
    46.5138     3144
    46.5794     2809
    46.6451     2855
    46.7107     2719
    46.7764     2859
    46.8420     3037
    46.9077     3635
    46.9733     7377
    47.0390     6573
    47.1046     5586
    47.1703     4270
    47.2359     3167
    47.3016     3040
    47.3673     3203
    47.4329     3397
    47.4986     3628
    47.5642     4746
    47.6299    11601
    47.6955    18246
    47.7612    10542
    47.8268     9973
    47.8925     4557
    47.9581     3346
    48.0238     3177
    48.0894     3296
    48.1551     3480
    48.2207     4665
    48.2864    12397
    48.3520    12465
    48.4177     9503
    48.4833     7556
    48.5490     4314
    48.6146     5950
    48.6803    13345
    48.7459     6318
    48.8116     7959
    48.8772     3844
    48.9429     3200
    49.0085     2922
    49.0742     2845
    49.1398     2952
    49.2055     2914
    49.2711     3033
    49.3368     3402
    49.4024     3269
    49.4681     3299
    49.5337     3572
    49.5994     3392
    49.6651     3400
    49.7307     3739
    49.7964     5010
    49.8620    14840
    49.9277    13471
    49.9933    10758
    50.0590     8682
    50.1246     4483
    50.1903     3795
    50.2559     4457
    50.3216     9108
    50.3872     8871
    50.4529     6819
    50.5185     6076
    50.5842     3525
    50.6498     2991
    50.7155     2935
    50.7811     2905
    50.8468     2872
    50.9124     2933
    50.9781     3009
    51.0437     3004
    51.1094     3219
    51.1750     4896
    51.2407     8783
    51.3063     4626
    51.3720     5980
    51.4376     3900
    51.5033     3384
    51.5689     3003
    51.6346     3040
    51.7002     2862
    51.7659     2821
    51.8315     2896
    51.8972     2693
    51.9628     2844
    52.0285     2753
    52.0942     2867
    52.1598     2892
    52.2255     3034
    52.2911     3173
    52.3568     3511
    52.4224     7186
    52.4881    10009
    52.5537     6075
    52.6194     6835
    52.6850     4324
    52.7507     4397
    52.8163     5972
    52.8820     5438
    52.9476     4512
    53.0133     4257
    53.0789     3009
    53.1446     2760
    53.2102     2692
    53.2759     2828
    53.3415     2870
    53.4072     2941
    53.4728     3765
    53.5385     3803
    53.6041     3247
    53.6698     3266
    53.7354     2800
    53.8011     2783
    53.8667     2771
    53.9324     2725
    53.9980     2805
    54.0637     2771
    54.1293     2861
    54.1950     3123
    54.2607     3021
    54.3263     2875
    54.3920     2812
    54.4576     2696
    54.5233     2651
    54.5889     2774
    54.6546     2725
    54.7202     2773
    54.7859     2775
    54.8515     2730
    54.9172     2824
    54.9828     2959
    55.0485     3010
    55.1141     3318
    55.1798     4941
    55.2454    11445
    55.3111     6773
    55.3767     6897
    55.4424     5920
    55.5080     3530
    55.5737     3613
    55.6393     3062
    55.7050     3009
    55.7706     2969
    55.8363     2965
    55.9019     2935
    55.9676     3013
    56.0332     3182
    56.0989     4461
    56.1645     6574
    56.2302    10489
    56.2958    11743
    56.3615     6645
    56.4271     7678
    56.4928     4309
    56.5584     3326
    56.6241     3102
    56.6898     3059
    56.7554     3333
    56.8211     3914
    56.8867     7117
    56.9524     9677
    57.0180     7734
    57.0837     6920
    57.1493     8433
    57.2150     6254
    57.2806     4306
    57.3463     4941
    57.4119     3418
    57.4776     3111
    57.5432     3006
    57.6089     3114
    57.6745     3525
    57.7402     5135
    57.8058     8833
    57.8715     5180
    57.9371     7117
    58.0028     4835
    58.0684     3810
    58.1341     3676
    58.1997     3249
    58.2654     3752
    58.3310     6148
    58.3967     8474
    58.4623     5246
    58.5280     6762
    58.5936     9428
    58.6593     6436
    58.7249     5104
    58.7906     7594
    58.8562     9641
    58.9219     5912
    58.9876     5546
    59.0532     5395
    59.1189     3521
    59.1845     3119
    59.2502     3037
    59.3158     3025
    59.3815     3134
    59.4471     4398
    59.5128     7721
    59.5784     6824
    59.6441     5124
    59.7097     6780
    59.7754     7720
    59.8410    11178
    59.9067     6196
    59.9723     6205
    60.0380     5543
    60.1036     3393
    60.1693     3133
    60.2349     3053
    60.3006     3127
    60.3662     3343
    60.4319     3776
    60.4975     6206
    60.5632    14362
    60.6288     8661
    60.6945     8386
    60.7601     9345
    60.8258     5459
    60.8914     5361
    60.9571     5581
    61.0227     3958
    61.0884     3624
    61.1540     3499
    61.2197     2806
    61.2854     2681
    61.3510     2634
    61.4167     2707
    61.4823     2631
    61.5480     2660
    61.6136     2598
    61.6793     2584
    61.7449     2559
    61.8106     2564
    61.8762     2567
    61.9419     2639
    62.0075     2651
    62.0732     2461
    62.1388     2550
    62.2045     2602
    62.2701     2475
    62.3358     2550
    62.4014     2461
    62.4671     2523
    62.5327     2537
    62.5984     2557
    62.6640     2410
    62.7297     2538
    62.7953     2500
    62.8610     2512
    62.9266     2593
    62.9923     2572
    63.0579     2539
    63.1236     2596
    63.1892     2607
    63.2549     2740
    63.3205     2858
    63.3862     3234
    63.4518     4083
    63.5175     3146
    63.5831     3189
    63.6488     3130
    63.7145     2837
    63.7801     3317
    63.8458     4222
    63.9114     3291
    63.9771     3362
    64.0427     4043
    64.1084     3870
    64.1740     2957
    64.2397     3033
    64.3053     3026
    64.3710     2682
    64.4366     2504
    64.5023     2530
    64.5679     2584
    64.6336     2569
    64.6992     2736
    64.7649     2754
    64.8305     2686
    64.8962     2760
    64.9618     2622
    65.0275     2565
    65.0931     2509
    65.1588     2419
    65.2244     2343
    65.2901     2430
    65.3557     2418
    65.4214     2386
    65.4870     2435
    65.5527     2406
    65.6183     2348
    65.6840     2509
    65.7496     2426
    65.8153     2490
    65.8810     2380
    65.9466     2421
    66.0123     2409
    66.0779     2542
    66.1436     2390
    66.2092     2399
    66.2749     2611
    66.3405     2474
    66.4062     2453
    66.4718     2424
    66.5375     2462
    66.6031     2596
    66.6688     2390
    66.7344     2431
    66.8001     2535
    66.8657     2362
    66.9314     2397
    66.9970     2389
    67.0627     2411
    67.1283     2395
    67.1940     2402
    67.2596     2437
    67.3253     2499
    67.3909     2491
    67.4566     2381
    67.5222     2475
    67.5879     2549
    67.6535     2348
    67.7192     2552
    67.7848     2511
    67.8505     2553
    67.9161     2673
    67.9818     3552
    68.0474     3473
    68.1131     3303
    68.1787     3191
    68.2444     3276
    68.3101     4170
    68.3757     4801
    68.4414     3019
    68.5070     3403
    68.5727     3526
    68.6383     2732
    68.7040     2520
    68.7696     2633
    68.8353     2465
    68.9009     2540
    68.9666     2619
    69.0322     2767
    69.0979     3076
    69.1635     4477
    69.2292     4204
    69.2948     3374
    69.3605     3638
    69.4261     3521
    69.4918     3469
    69.5574     3236
    69.6231     3078
    69.6887     4055
    69.7544     6532
    69.8200     6919
    69.8857     4504
    69.9513     5062
    70.0170     5300
    70.0826     3589
    70.1483     3067
    70.2139     2960
    70.2796     3011
    70.3452     3554
    70.4109     5220
    70.4765     3962
    70.5422     3674
    70.6078     4880
    70.6735     4984
    70.7392     4175
    70.8048     3375
    70.8705     3610
    70.9361     3575
    71.0018     3651
    71.0674     5110
    71.1331     3174
    71.1987     3123
    71.2644     3833
    71.3300     3004
    71.3957     2810
    71.4613     2845
    71.5270     3774
    71.5926     4906
    71.6583     3919
    71.7239     3391
    71.7896     3760
    71.8552     3251
    71.9209     2761
    71.9865     2692
    72.0522     2541
    72.1178     2602
    72.1835     2530
    72.2491     2712
    72.3148     2962
    72.3804     4124
    72.4461     3585
    72.5117     3015
    72.5774     3217
    72.6430     3177
    72.7087     2711
    72.7743     2649
    72.8400     2958
    72.9057     4199
    72.9713     3906
    73.0370     3124
    73.1026     3491
    73.1683     3973
    73.2339     3896
    73.2996     3334
    73.3652     3173
    73.4309     3637
    73.4965     3224
    73.5622     3115
    73.6278     3924
    73.6935     5797
    73.7591     5480
    73.8248     3879
    73.8904     4095
    73.9561     4154
    74.0217     3177
    74.0874     2583
    74.1530     2644
    74.2187     2495
    74.2843     2436
    74.3500     2433
    74.4156     2469
    74.4813     2469
    74.5469     2392
    74.6126     2328
    74.6782     2517
    74.7439     2414
    74.8095     2474
    74.8752     2387
    74.9408     2456
    75.0065     2416
    75.0722     2399
    75.1378     2336
    75.2035     2583
    75.2691     2449
    75.3348     2506
    75.4004     2481
    75.4661     2524
    75.5317     2586
    75.5974     2553
    75.6630     2579
    75.7287     2548
    75.7943     2624
    75.8600     2814
    75.9256     3082
    75.9913     3202
    76.0569     3705
    76.1226     4728
    76.1882     4237
    76.2539     3401
    76.3195     3700
    76.3852     3462
    76.4508     2953
    76.5165     2840
    76.5821     2915
    76.6478     3736
    76.7134     4567
    76.7791     3841
    76.8447     3248
    76.9104     3325
    76.9760     3457
    77.0417     2754
    77.1073     2595
    77.1730     2497
    77.2386     2438
    77.3043     2474
    77.3699     2651
    77.4356     2970
    77.5013     3152
    77.5669     2821
    77.6326     2597
    77.6982     2804
    77.7639     2719
    77.8295     2585
    77.8952     2723
    77.9608     2866
    78.0265     2809
    78.0921     2680
    78.1578     3206
    78.2234     3534
    78.2891     3456
    78.3547     3350
    78.4204     3665
    78.4860     4399
    78.5517     4228
    78.6173     4298
    78.6830     4227
    78.7486     3618
    78.8143     3321
    78.8799     3272
    78.9456     3096
    79.0112     2726
    79.0769     2753
    79.1425     2932
    79.2082     3782
    79.2738     3670
    79.3395     3092
    79.4051     3367
    79.4708     3546
    79.5364     3140
    79.6021     2902
    79.6677     2840
    79.7334     3183
    79.7990     3647
    79.8647     4890
    79.9304     4158
    79.9960     3466
    80.0617     3943
    80.1273     5399
    80.1930     5402
    80.2586     5560
    80.3243     5179
    80.3899     5412
    80.4556     4923
    80.5212     4947
    80.5869     3940
    80.6525     3673
    80.7182     3596
    80.7838     3593
    80.8495     3537
    80.9151     3304
    80.9808     3205
    81.0464     2961
    81.1121     2838
    81.1777     2884
    81.2434     2687
    81.3090     2463
    81.3747     2487
    81.4403     2616
    81.5060     2597
    81.5716     2718
    81.6373     3100
    81.7029     3699
    81.7686     3562
    81.8342     3072
    81.8999     2998
    81.9655     3376
    82.0312     3404
    82.0968     3003
    82.1625     2792
    82.2281     2737
    82.2938     2819
    82.3595     3045
    82.4251     3517
    82.4908     3037
    82.5564     2616
    82.6221     2712
    82.6877     3039
    82.7534     2583
    82.8190     2525
    82.8847     2524
    82.9503     2507
    83.0160     2667
    83.0816     2744
    83.1473     2805
    83.2129     2714
    83.2786     2704
    83.3442     3375
    83.4099     3265
    83.4755     2768
    83.5412     2669
    83.6068     2897
    83.6725     2694
    83.7381     2455
    83.8038     2538
    83.8694     2434
    83.9351     2410
    84.0007     2523
    84.0664     2490
    84.1320     2452
    84.1977     2462
    84.2633     2576
    84.3290     2587
    84.3946     2625
    84.4603     2454
    84.5260     2493
    84.5916     2469
    84.6573     2585
    84.7229     2534
    84.7886     2466
    84.8542     2508
    84.9199     2651
    84.9855     2711
    85.0512     2926
    85.1168     3106
    85.1825     3233
    85.2481     3555
    85.3138     4062
    85.3794     4411
    85.4451     3772
    85.5107     3350
    85.5764     3316
    85.6420     3322
    85.7077     2891
    85.7733     2754
    85.8390     2494
    85.9046     2465
    85.9703     2578
    86.0359     3073
    86.1016     2932
    86.1672     2690
    86.2329     2621
    86.2985     2669
    86.3642     2727
    86.4298     2650
    86.4955     2822
    86.5611     3177
    86.6268     3231
    86.6925     2743
    86.7581     2679
    86.8238     2896
    86.8894     2907
    86.9551     2832
    87.0207     3046
    87.0864     3480
    87.1520     3210
    87.2177     2700
    87.2833     2843
    87.3490     2952
    87.4146     2860
    87.4803     2716
    87.5459     2897
    87.6116     3460
    87.6772     3314
    87.7429     2794
    87.8085     2917
    87.8742     2892
    87.9398     3161
    88.0055     3383
    88.0711     3742
    88.1368     3226
    88.2024     2790
    88.2681     2948
    88.3337     3289
    88.3994     3170
    88.4650     2686
    88.5307     2633
    88.5963     2707
    88.6620     2693
    88.7276     2638
    88.7933     2865
    88.8589     3306
    88.9246     3192
    88.9902     2726
    89.0559     2748
    89.1216     2825
    89.1872     3070
    89.2529     3014
    89.3185     2828
    89.3842     2578
    89.4498     2608
    89.5155     2643
    89.5811     2739
    89.6468     2811
    89.7124     3270
    89.7781     3585
    89.8437     3266
    89.9094     3344
    89.9750     3728
    90.0407     3717
    90.1063     3145
    90.1720     3047
    90.2376     3356
    90.3033     3488
    90.3689     2948
    90.4346     2678
    90.5002     2787
    90.5659     3066
    90.6315     3023
    90.6972     3021
    90.7628     3104
    90.8285     2878
    90.8941     2696
    90.9598     2884
    91.0254     3010
    91.0911     3383
    91.1567     3415
    91.2224     3197
    91.2880     2870
    91.3537     3141
    91.4193     3603
    91.4850     4118
    91.5507     3514
    91.6163     3006
    91.6820     2871
    91.7476     3352
    91.8133     3280
    91.8789     2786
    91.9446     2778
    92.0102     2798
    92.0759     3024
    92.1415     3000
    92.2072     2922
    92.2728     2961
    92.3385     3201
    92.4041     3633
    92.4698     3476
    92.5354     3115
    92.6011     2880
    92.6667     2900
    92.7324     2968
    92.7980     2741
    92.8637     2534
    92.9293     2589
    92.9950     2532
    93.0606     2367
    93.1263     2423
    93.1919     2405
    93.2576     2492
    93.3232     2432
    93.3889     2479
    93.4545     2796
    93.5202     3189
    93.5858     2814
    93.6515     2757
    93.7171     2913
    93.7828     2965
    93.8484     2888
    93.9141     2700
    93.9798     2666
    94.0454     2557
    94.1111     2611
    94.1767     2719
    94.2424     2950
    94.3080     2990
    94.3737     3107
    94.4393     3160
    94.5050     2973
    94.5706     2797
    94.6363     2892
    94.7019     2897
    94.7676     2798
    94.8332     2538
    94.8989     2508
    94.9645     2413
    95.0302     2387
    95.0958     2452
    95.1615     2514
    95.2271     2363
    95.2928     2338
    95.3584     2425
    95.4241     2443
    95.4897     2455
    95.5554     2421
    95.6210     2435
    95.6867     2481
    95.7523     2533
    95.8180     2531
    95.8836     2566
    95.9493     2459
    96.0149     2544
    96.0806     2582
    96.1463     2528
    96.2119     2579
    96.2776     2967
    96.3432     3589
    96.4089     3334
    96.4745     3277
    96.5402     3455
    96.6058     3338
    96.6715     3117
    96.7371     3158
    96.8028     2872
    96.8684     2894
    96.9341     2666
    96.9997     2551
    97.0654     2582
    97.1310     2524
    97.1967     2649
    97.2623     2929
    97.3280     3324
    97.3936     3421
    97.4593     3147
    97.5249     2785
    97.5906     2786
    97.6562     2900
    97.7219     2902
    97.7875     2688
    97.8532     2604
    97.9188     2511
    97.9845     2658
    98.0501     2675
    98.1158     2787
    98.1814     2984
    98.2471     3081
    98.3128     3192
    98.3784     3444
    98.4441     3809
    98.5097     3713
    98.5754     3317
    98.6410     3151
    98.7067     3340
    98.7723     3887
    98.8380     4269
    98.9036     4158
    98.9693     4447
    99.0349     4589
    99.1006     3976
    99.1662     3631
    99.2319     3211
    99.2975     3465
    99.3632     3493
    99.4288     3141
    99.4945     2846
    99.5601     2707
    99.6258     2691
    99.6914     2972
    99.7571     3396
    99.8227     3174
    99.8884     2827
    99.9540     2951
    99.9934     2871