File: powder_X-ray_diffraction/variable-temperature_experiments/NaTaO2F2/raw_data/280°C.XY
! Initial file:   D:\ZAKARY_OUAIL\MA_THESE\Deuxième_année_de_thèse\DRX\Manips_DRX\1st_NaTaO2F2_XRK900\NaTaO2F2-Lent_280°C.xrdml
! Initial format:  58
! WAVE (A):      1.54060     1.54060     1.00000
! REM : data have been multiplied by     1.0000
! X_data : 2 Theta (deg.)
! Y_data : Intensity (arb. units)
!     X         Y
!--------------------------------------------------------------------------------
    10.0116     6236
    10.0772     6151
    10.1429     6281
    10.2086     6062
    10.2742     6197
    10.3399     6108
    10.4055     6257
    10.4712     6089
    10.5368     6131
    10.6025     5940
    10.6681     6046
    10.7338     5999
    10.7994     6171
    10.8651     6223
    10.9307     6860
    10.9964     9530
    11.0620    25950
    11.1277    46210
    11.1933    14397
    11.2590     6739
    11.3246     6237
    11.3903     6025
    11.4559     5870
    11.5216     5896
    11.5872     5801
    11.6529     5734
    11.7185     5767
    11.7842     5855
    11.8498     5676
    11.9155     5603
    11.9811     5508
    12.0468     5729
    12.1124     5529
    12.1781     5639
    12.2437     5483
    12.3094     5440
    12.3750     5424
    12.4407     5401
    12.5063     5588
    12.5720     5325
    12.6377     5435
    12.7033     5218
    12.7690     5388
    12.8346     5350
    12.9003     5183
    12.9659     5247
    13.0316     5303
    13.0972     5331
    13.1629     5276
    13.2285     5286
    13.2942     5268
    13.3598     5046
    13.4255     5174
    13.4911     5196
    13.5568     5200
    13.6224     5064
    13.6881     5025
    13.7537     4917
    13.8194     4908
    13.8850     5125
    13.9507     5099
    14.0163     4958
    14.0820     4973
    14.1476     5057
    14.2133     4953
    14.2789     4919
    14.3446     4931
    14.4102     4828
    14.4759     4844
    14.5415     4810
    14.6072     4908
    14.6728     4743
    14.7385     4775
    14.8041     4701
    14.8698     4730
    14.9355     4859
    15.0011     4853
    15.0668     4730
    15.1324     4751
    15.1981     4711
    15.2637     4751
    15.3294     4653
    15.3950     4676
    15.4607     4609
    15.5263     4601
    15.5920     4754
    15.6576     4553
    15.7233     4617
    15.7889     4574
    15.8546     4567
    15.9202     4595
    15.9859     4571
    16.0515     4638
    16.1172     4644
    16.1828     4621
    16.2485     4804
    16.3141     4680
    16.3798     4737
    16.4454     4613
    16.5111     4592
    16.5767     4533
    16.6424     4571
    16.7080     4544
    16.7737     4413
    16.8393     4444
    16.9050     4454
    16.9706     4306
    17.0363     4546
    17.1019     4497
    17.1676     4548
    17.2333     4602
    17.2989     4497
    17.3646     4467
    17.4302     4357
    17.4959     4349
    17.5615     4275
    17.6272     4377
    17.6928     4538
    17.7585     4589
    17.8241     4342
    17.8898     4197
    17.9554     4219
    18.0211     4091
    18.0867     4290
    18.1524     4152
    18.2180     4152
    18.2837     4222
    18.3493     4266
    18.4150     4160
    18.4806     4085
    18.5463     4165
    18.6119     4243
    18.6776     4198
    18.7432     4065
    18.8089     4151
    18.8745     3980
    18.9402     4361
    19.0058     4520
    19.0715     4483
    19.1371     4467
    19.2028     4623
    19.2684     4719
    19.3341     4812
    19.3997     5133
    19.4654     6290
    19.5311    11849
    19.5967    66441
    19.6624   109824
    19.7280    34637
    19.7937     7927
    19.8593     5488
    19.9250     4724
    19.9906     4463
    20.0563     4322
    20.1219     4441
    20.1876     4492
    20.2532     4297
    20.3189     4169
    20.3845     4230
    20.4502     4026
    20.5158     4064
    20.5815     3954
    20.6471     4018
    20.7128     3917
    20.7784     3955
    20.8441     3915
    20.9097     3897
    20.9754     3774
    21.0410     3965
    21.1067     3863
    21.1723     3888
    21.2380     3826
    21.3036     3955
    21.3693     3840
    21.4349     3860
    21.5006     3893
    21.5662     3720
    21.6319     3873
    21.6975     3977
    21.7632     4120
    21.8288     3958
    21.8945     3959
    21.9602     3919
    22.0258     4004
    22.0915     3805
    22.1571     3909
    22.2228     4456
    22.2884     9463
    22.3541    17254
    22.4197     8594
    22.4854     4158
    22.5510     3873
    22.6167     3779
    22.6823     3797
    22.7480     3819
    22.8136     3977
    22.8793     3824
    22.9449     3760
    23.0106     3634
    23.0762     3746
    23.1419     3693
    23.2075     3555
    23.2732     3690
    23.3388     3651
    23.4045     3709
    23.4701     3762
    23.5358     3975
    23.6014     3838
    23.6671     3871
    23.7327     3919
    23.7984     3881
    23.8640     4148
    23.9297     4198
    23.9953     4547
    24.0610     5425
    24.1266    14189
    24.1923    44406
    24.2580    28619
    24.3236    35779
    24.3893    42227
    24.4549    16830
    24.5206     5229
    24.5862     4026
    24.6519     3912
    24.7175     3765
    24.7832     3817
    24.8488     3761
    24.9145     3616
    24.9801     3911
    25.0458     3704
    25.1114     3510
    25.1771     3699
    25.2427     3469
    25.3084     3588
    25.3740     3615
    25.4397     3659
    25.5053     3514
    25.5710     3615
    25.6366     3438
    25.7023     3568
    25.7679     3497
    25.8336     3429
    25.8992     3387
    25.9649     3314
    26.0305     3508
    26.0962     3661
    26.1618     3704
    26.2275     3563
    26.2931     3626
    26.3588     3581
    26.4244     3382
    26.4901     3494
    26.5558     3406
    26.6214     3437
    26.6871     3451
    26.7527     3541
    26.8184     3647
    26.8840     3692
    26.9497     3551
    27.0153     3689
    27.0810     3668
    27.1466     3667
    27.2123     3642
    27.2779     3727
    27.3436     3805
    27.4092     4316
    27.4749     4811
    27.5405     6652
    27.6062    17304
    27.6718    84605
    27.7375    59822
    27.8031    17805
    27.8688     5846
    27.9344     4286
    28.0001     3871
    28.0657     3878
    28.1314     3638
    28.1970     3917
    28.2627     3771
    28.3283     3634
    28.3940     3623
    28.4596     3629
    28.5253     3624
    28.5909     3572
    28.6566     3519
    28.7222     3495
    28.7879     3469
    28.8536     3582
    28.9192     3626
    28.9849     3842
    29.0505     4197
    29.1162     5275
    29.1818    19706
    29.2475    27547
    29.3131    22761
    29.3788    20206
    29.4444    12113
    29.5101     4767
    29.5757     3822
    29.6414     3498
    29.7070     3353
    29.7727     3393
    29.8383     3335
    29.9040     3391
    29.9696     3358
    30.0353     3371
    30.1009     3293
    30.1666     3303
    30.2322     3314
    30.2979     3292
    30.3635     3309
    30.4292     3288
    30.4948     3365
    30.5605     3300
    30.6261     3269
    30.6918     3160
    30.7574     3268
    30.8231     3058
    30.8887     3164
    30.9544     3101
    31.0200     3152
    31.0857     3148
    31.1514     3230
    31.2170     3118
    31.2827     3071
    31.3483     3183
    31.4140     3096
    31.4796     3081
    31.5453     3065
    31.6109     3086
    31.6766     3098
    31.7422     3172
    31.8079     3212
    31.8735     3168
    31.9392     3123
    32.0048     3109
    32.0705     3084
    32.1361     3117
    32.2018     3311
    32.2674     3216
    32.3331     3261
    32.3987     3560
    32.4644     3691
    32.5300     4346
    32.5957    19277
    32.6613    12323
    32.7270     8459
    32.7926     4046
    32.8583     3491
    32.9239     3610
    32.9896     3746
    33.0552     4142
    33.1209     4863
    33.1865    16655
    33.2522    31310
    33.3178    21028
    33.3835     7113
    33.4492     4994
    33.5148     6284
    33.5805    21858
    33.6461    25521
    33.7118    18410
    33.7774    17699
    33.8431    10160
    33.9087     5985
    33.9744     3648
    34.0400     3349
    34.1057     3257
    34.1713     3124
    34.2370     3178
    34.3026     3247
    34.3683     3362
    34.4339     3557
    34.4996     5785
    34.5652    13501
    34.6309     9636
    34.6965     4961
    34.7622     3411
    34.8278     3319
    34.8935     3527
    34.9591     3357
    35.0248     3069
    35.0904     2943
    35.1561     3045
    35.2217     2927
    35.2874     2876
    35.3530     2984
    35.4187     2892
    35.4843     2956
    35.5500     3033
    35.6156     2914
    35.6813     2908
    35.7470     2955
    35.8126     2894
    35.8783     2955
    35.9439     2878
    36.0096     2949
    36.0752     2858
    36.1409     2987
    36.2065     2954
    36.2722     2962
    36.3378     2997
    36.4035     2886
    36.4691     2985
    36.5348     3041
    36.6004     3743
    36.6661     9016
    36.7317     5853
    36.7974     5059
    36.8630     3252
    36.9287     2925
    36.9943     2929
    37.0600     3120
    37.1256     3351
    37.1913     5346
    37.2569    10154
    37.3226     6719
    37.3882     4792
    37.4539     3121
    37.5195     3344
    37.5852     3450
    37.6508     3411
    37.7165     2917
    37.7821     2888
    37.8478     2750
    37.9134     2805
    37.9791     2757
    38.0448     2744
    38.1104     2832
    38.1761     2748
    38.2417     2776
    38.3074     2674
    38.3730     2712
    38.4387     2747
    38.5043     2830
    38.5700     2811
    38.6356     2718
    38.7013     2732
    38.7669     2642
    38.8326     2880
    38.8982     2691
    38.9639     2787
    39.0295     2785
    39.0952     2860
    39.1608     2689
    39.2265     2665
    39.2921     2804
    39.3578     2810
    39.4234     2926
    39.4891     2986
    39.5547     3766
    39.6204     4609
    39.6860     3924
    39.7517     3489
    39.8173     3838
    39.8830     8051
    39.9486     5288
    40.0143     4959
    40.0799     3285
    40.1456     3166
    40.2112     3522
    40.2769     8538
    40.3425     6680
    40.4082     6839
    40.4739     3614
    40.5395     3134
    40.6052     3041
    40.6708     3102
    40.7365     3733
    40.8021     8166
    40.8678     9312
    40.9334     8516
    40.9991    12624
    41.0647    10442
    41.1304    16676
    41.1960     7716
    41.2617     6443
    41.3273     3294
    41.3930     2905
    41.4586     2794
    41.5243     2741
    41.5899     2665
    41.6556     2747
    41.7212     2720
    41.7869     2714
    41.8525     2747
    41.9182     2661
    41.9838     2751
    42.0495     2734
    42.1151     2718
    42.1808     2702
    42.2464     2661
    42.3121     2651
    42.3777     2890
    42.4434     2729
    42.5090     2607
    42.5747     2655
    42.6404     2627
    42.7060     2719
    42.7717     2706
    42.8373     2831
    42.9030     2546
    42.9686     2677
    43.0343     2712
    43.0999     2666
    43.1656     2635
    43.2312     2825
    43.2969     3283
    43.3625     3032
    43.4282     3005
    43.4938     2723
    43.5595     2654
    43.6251     2623
    43.6908     2701
    43.7564     2644
    43.8221     2548
    43.8877     2598
    43.9534     2708
    44.0190     2971
    44.0847     4056
    44.1503     3382
    44.2160     3553
    44.2816     3135
    44.3473     4186
    44.4129     5249
    44.4786     4053
    44.5442     3708
    44.6099     2826
    44.6755     2627
    44.7412     2730
    44.8068     2749
    44.8725     2757
    44.9381     2670
    45.0038     2730
    45.0695     2702
    45.1351     2651
    45.2008     2846
    45.2664     2813
    45.3321     2752
    45.3977     2938
    45.4634     3153
    45.5290     5184
    45.5947    10338
    45.6603     5332
    45.7260     5766
    45.7916     3113
    45.8573     2828
    45.9229     2785
    45.9886     2817
    46.0542     2872
    46.1199     2850
    46.1855     2870
    46.2512     3806
    46.3168     7058
    46.3825     4116
    46.4481     4878
    46.5138     3130
    46.5794     2905
    46.6451     2761
    46.7107     2902
    46.7764     2989
    46.8420     3027
    46.9077     4161
    46.9733     8193
    47.0390     5634
    47.1046     5878
    47.1703     3674
    47.2359     2977
    47.3016     3129
    47.3673     3092
    47.4329     3384
    47.4986     3659
    47.5642     5310
    47.6299    15019
    47.6955    14803
    47.7612    11202
    47.8268     8455
    47.8925     3991
    47.9581     3343
    48.0238     3245
    48.0894     3248
    48.1551     3355
    48.2207     5434
    48.2864    12702
    48.3520    12149
    48.4177     8777
    48.4833     7223
    48.5490     4166
    48.6146     7075
    48.6803    12204
    48.7459     6477
    48.8116     7399
    48.8772     3615
    48.9429     3085
    49.0085     3034
    49.0742     2885
    49.1398     2876
    49.2055     2910
    49.2711     2921
    49.3368     3340
    49.4024     3208
    49.4681     3298
    49.5337     3658
    49.5994     3477
    49.6651     3562
    49.7307     3720
    49.7964     5379
    49.8620    16854
    49.9277    11991
    49.9933    11192
    50.0590     7701
    50.1246     4259
    50.1903     3874
    50.2559     5124
    50.3216    10889
    50.3872     7502
    50.4529     7347
    50.5185     5099
    50.5842     3301
    50.6498     2996
    50.7155     2968
    50.7811     2944
    50.8468     2790
    50.9124     2826
    50.9781     2968
    51.0437     3002
    51.1094     3326
    51.1750     6465
    51.2407     6912
    51.3063     5107
    51.3720     5204
    51.4376     3872
    51.5033     3173
    51.5689     3196
    51.6346     2878
    51.7002     2833
    51.7659     2826
    51.8315     2729
    51.8972     2848
    51.9628     2820
    52.0285     2817
    52.0942     2783
    52.1598     2980
    52.2255     3070
    52.2911     3147
    52.3568     3639
    52.4224     8156
    52.4881     9518
    52.5537     6053
    52.6194     6653
    52.6850     3992
    52.7507     4710
    52.8163     6133
    52.8820     5046
    52.9476     4508
    53.0133     3807
    53.0789     2875
    53.1446     2826
    53.2102     2792
    53.2759     2786
    53.3415     2871
    53.4072     2996
    53.4728     3794
    53.5385     3864
    53.6041     3244
    53.6698     3430
    53.7354     2896
    53.8011     2781
    53.8667     2750
    53.9324     2785
    53.9980     2760
    54.0637     2781
    54.1293     2965
    54.1950     3127
    54.2607     2985
    54.3263     2914
    54.3920     2808
    54.4576     2835
    54.5233     2746
    54.5889     2855
    54.6546     2752
    54.7202     2688
    54.7859     2781
    54.8515     2725
    54.9172     2766
    54.9828     2904
    55.0485     3052
    55.1141     3515
    55.1798     6099
    55.2454    11354
    55.3111     5797
    55.3767     7651
    55.4424     4762
    55.5080     3613
    55.5737     3421
    55.6393     2988
    55.7050     3062
    55.7706     2893
    55.8363     2881
    55.9019     2899
    55.9676     3021
    56.0332     3345
    56.0989     5230
    56.1645     6299
    56.2302    10957
    56.2958    10824
    56.3615     6802
    56.4271     7301
    56.4928     3975
    56.5584     3186
    56.6241     3069
    56.6898     3220
    56.7554     3365
    56.8211     4511
    56.8867     7979
    56.9524     9818
    57.0180     7085
    57.0837     7273
    57.1493     8478
    57.2150     5392
    57.2806     4606
    57.3463     4606
    57.4119     3205
    57.4776     3102
    57.5432     3002
    57.6089     3092
    57.6745     3544
    57.7402     5918
    57.8058     8340
    57.8715     5326
    57.9371     7297
    58.0028     4542
    58.0684     4017
    58.1341     3469
    58.1997     3315
    58.2654     4088
    58.3310     7310
    58.3967     7385
    58.4623     5258
    58.5280     7546
    58.5936     9662
    58.6593     5364
    58.7249     6018
    58.7906     8061
    58.8562     9148
    58.9219     5159
    58.9876     5957
    59.0532     4550
    59.1189     3217
    59.1845     3029
    59.2502     3080
    59.3158     3067
    59.3815     3279
    59.4471     4959
    59.5128     8354
    59.5784     5768
    59.6441     5493
    59.7097     6604
    59.7754     7681
    59.8410    10993
    59.9067     5856
    59.9723     6678
    60.0380     5254
    60.1036     3304
    60.1693     3115
    60.2349     3159
    60.3006     3226
    60.3662     3339
    60.4319     4024
    60.4975     8048
    60.5632    14484
    60.6288     7482
    60.6945     9523
    60.7601     8578
    60.8258     4964
    60.8914     5353
    60.9571     5326
    61.0227     3756
    61.0884     3803
    61.1540     3243
    61.2197     2728
    61.2854     2740
    61.3510     2689
    61.4167     2614
    61.4823     2628
    61.5480     2616
    61.6136     2575
    61.6793     2546
    61.7449     2588
    61.8106     2627
    61.8762     2640
    61.9419     2571
    62.0075     2487
    62.0732     2614
    62.1388     2588
    62.2045     2626
    62.2701     2590
    62.3358     2427
    62.4014     2617
    62.4671     2508
    62.5327     2432
    62.5984     2590
    62.6640     2472
    62.7297     2587
    62.7953     2561
    62.8610     2596
    62.9266     2465
    62.9923     2552
    63.0579     2567
    63.1236     2633
    63.1892     2649
    63.2549     2692
    63.3205     2787
    63.3862     3447
    63.4518     3829
    63.5175     3086
    63.5831     3201
    63.6488     3128
    63.7145     2932
    63.7801     3774
    63.8458     3924
    63.9114     3112
    63.9771     3493
    64.0427     3905
    64.1084     3684
    64.1740     2795
    64.2397     3117
    64.3053     2874
    64.3710     2549
    64.4366     2410
    64.5023     2469
    64.5679     2455
    64.6336     2617
    64.6992     2772
    64.7649     2729
    64.8305     2695
    64.8962     2808
    64.9618     2663
    65.0275     2562
    65.0931     2475
    65.1588     2567
    65.2244     2437
    65.2901     2454
    65.3557     2379
    65.4214     2410
    65.4870     2320
    65.5527     2428
    65.6183     2433
    65.6840     2401
    65.7496     2547
    65.8153     2450
    65.8810     2401
    65.9466     2435
    66.0123     2399
    66.0779     2430
    66.1436     2411
    66.2092     2523
    66.2749     2438
    66.3405     2491
    66.4062     2518
    66.4718     2487
    66.5375     2412
    66.6031     2497
    66.6688     2556
    66.7344     2386
    66.8001     2403
    66.8657     2370
    66.9314     2514
    66.9970     2605
    67.0627     2357
    67.1283     2349
    67.1940     2413
    67.2596     2383
    67.3253     2464
    67.3909     2538
    67.4566     2484
    67.5222     2429
    67.5879     2437
    67.6535     2478
    67.7192     2478
    67.7848     2505
    67.8505     2569
    67.9161     2745
    67.9818     3589
    68.0474     3563
    68.1131     3201
    68.1787     3319
    68.2444     3414
    68.3101     5031
    68.3757     3736
    68.4414     2929
    68.5070     3641
    68.5727     2996
    68.6383     2608
    68.7040     2608
    68.7696     2590
    68.8353     2655
    68.9009     2488
    68.9666     2587
    69.0322     2727
    69.0979     3168
    69.1635     4682
    69.2292     4084
    69.2948     3279
    69.3605     3799
    69.4261     3690
    69.4918     3534
    69.5574     3043
    69.6231     3290
    69.6887     4403
    69.7544     7031
    69.8200     6570
    69.8857     4398
    69.9513     5355
    70.0170     5060
    70.0826     3244
    70.1483     2934
    70.2139     2939
    70.2796     3088
    70.3452     3837
    70.4109     5182
    70.4765     3867
    70.5422     3954
    70.6078     5473
    70.6735     5003
    70.7392     3960
    70.8048     3707
    70.8705     3673
    70.9361     3257
    71.0018     3920
    71.0674     4783
    71.1331     2919
    71.1987     3172
    71.2644     3730
    71.3300     2950
    71.3957     2855
    71.4613     3026
    71.5270     4019
    71.5926     4765
    71.6583     3577
    71.7239     3376
    71.7896     3714
    71.8552     3170
    71.9209     2812
    71.9865     2588
    72.0522     2610
    72.1178     2503
    72.1835     2450
    72.2491     2755
    72.3148     3349
    72.3804     4069
    72.4461     3038
    72.5117     2885
    72.5774     3292
    72.6430     2931
    72.7087     2729
    72.7743     2737
    72.8400     3450
    72.9057     4335
    72.9713     3496
    73.0370     3092
    73.1026     3779
    73.1683     4069
    73.2339     3707
    73.2996     3258
    73.3652     3304
    73.4309     3688
    73.4965     3073
    73.5622     3148
    73.6278     5081
    73.6935     5644
    73.7591     4953
    73.8248     3668
    73.8904     4151
    73.9561     3950
    74.0217     2838
    74.0874     2608
    74.1530     2524
    74.2187     2469
    74.2843     2484
    74.3500     2482
    74.4156     2480
    74.4813     2492
    74.5469     2480
    74.6126     2381
    74.6782     2445
    74.7439     2374
    74.8095     2429
    74.8752     2496
    74.9408     2484
    75.0065     2353
    75.0722     2404
    75.1378     2484
    75.2035     2537
    75.2691     2516
    75.3348     2489
    75.4004     2507
    75.4661     2346
    75.5317     2488
    75.5974     2542
    75.6630     2502
    75.7287     2559
    75.7943     2751
    75.8600     2853
    75.9256     2979
    75.9913     3260
    76.0569     4029
    76.1226     4816
    76.1882     3923
    76.2539     3432
    76.3195     3567
    76.3852     3427
    76.4508     2840
    76.5165     2965
    76.5821     3264
    76.6478     4125
    76.7134     4453
    76.7791     3414
    76.8447     3286
    76.9104     3436
    76.9760     3180
    77.0417     2731
    77.1073     2597
    77.1730     2528
    77.2386     2470
    77.3043     2400
    77.3699     2618
    77.4356     2971
    77.5013     3063
    77.5669     2728
    77.6326     2603
    77.6982     2974
    77.7639     2763
    77.8295     2528
    77.8952     2657
    77.9608     2915
    78.0265     2832
    78.0921     2735
    78.1578     3330
    78.2234     3401
    78.2891     3452
    78.3547     3356
    78.4204     4089
    78.4860     4282
    78.5517     4265
    78.6173     4419
    78.6830     4052
    78.7486     3332
    78.8143     3294
    78.8799     3125
    78.9456     2887
    79.0112     2791
    79.0769     2706
    79.1425     3194
    79.2082     4076
    79.2738     3517
    79.3395     3173
    79.4051     3467
    79.4708     3307
    79.5364     3003
    79.6021     2893
    79.6677     3124
    79.7334     3321
    79.7990     4148
    79.8647     4872
    79.9304     3775
    79.9960     3564
    80.0617     4410
    80.1273     5603
    80.1930     5069
    80.2586     5574
    80.3243     5217
    80.3899     5451
    80.4556     4834
    80.5212     4884
    80.5869     3860
    80.6525     3584
    80.7182     3641
    80.7838     3479
    80.8495     3395
    80.9151     3289
    80.9808     3098
    81.0464     2915
    81.1121     2841
    81.1777     2870
    81.2434     2658
    81.3090     2485
    81.3747     2627
    81.4403     2577
    81.5060     2657
    81.5716     2912
    81.6373     3467
    81.7029     3738
    81.7686     3357
    81.8342     3026
    81.8999     3002
    81.9655     3302
    82.0312     3220
    82.0968     3049
    82.1625     2772
    82.2281     2634
    82.2938     2861
    82.3595     3095
    82.4251     3858
    82.4908     2976
    82.5564     2748
    82.6221     2767
    82.6877     3015
    82.7534     2675
    82.8190     2637
    82.8847     2478
    82.9503     2533
    83.0160     2699
    83.0816     2771
    83.1473     2794
    83.2129     2743
    83.2786     2963
    83.3442     3444
    83.4099     3069
    83.4755     2724
    83.5412     2714
    83.6068     2914
    83.6725     2653
    83.7381     2509
    83.8038     2406
    83.8694     2420
    83.9351     2454
    84.0007     2431
    84.0664     2489
    84.1320     2461
    84.1977     2462
    84.2633     2544
    84.3290     2606
    84.3946     2554
    84.4603     2573
    84.5260     2492
    84.5916     2492
    84.6573     2666
    84.7229     2567
    84.7886     2491
    84.8542     2511
    84.9199     2498
    84.9855     2764
    85.0512     3093
    85.1168     3169
    85.1825     3274
    85.2481     3653
    85.3138     4166
    85.3794     4239
    85.4451     3394
    85.5107     3331
    85.5764     3246
    85.6420     3300
    85.7077     2805
    85.7733     2653
    85.8390     2525
    85.9046     2611
    85.9703     2823
    86.0359     3044
    86.1016     2803
    86.1672     2647
    86.2329     2655
    86.2985     2797
    86.3642     2712
    86.4298     2694
    86.4955     2853
    86.5611     3319
    86.6268     2896
    86.6925     2720
    86.7581     2680
    86.8238     2957
    86.8894     2883
    86.9551     2834
    87.0207     3361
    87.0864     3512
    87.1520     2969
    87.2177     2729
    87.2833     2944
    87.3490     2958
    87.4146     2837
    87.4803     2799
    87.5459     2963
    87.6116     3662
    87.6772     3150
    87.7429     2787
    87.8085     2850
    87.8742     3077
    87.9398     3191
    88.0055     3728
    88.0711     3686
    88.1368     2926
    88.2024     2892
    88.2681     3227
    88.3337     3348
    88.3994     3000
    88.4650     2641
    88.5307     2684
    88.5963     2614
    88.6620     2638
    88.7276     2638
    88.7933     2876
    88.8589     3336
    88.9246     3066
    88.9902     2773
    89.0559     2772
    89.1216     2932
    89.1872     3103
    89.2529     2967
    89.3185     2827
    89.3842     2549
    89.4498     2579
    89.5155     2582
    89.5811     2677
    89.6468     2858
    89.7124     3300
    89.7781     3623
    89.8437     3264
    89.9094     3474
    89.9750     3630
    90.0407     3637
    90.1063     3006
    90.1720     3242
    90.2376     3653
    90.3033     3170
    90.3689     2748
    90.4346     2716
    90.5002     2919
    90.5659     3019
    90.6315     2968
    90.6972     3057
    90.7628     3036
    90.8285     2818
    90.8941     2791
    90.9598     2873
    91.0254     3221
    91.0911     3375
    91.1567     3470
    91.2224     2995
    91.2880     2840
    91.3537     3368
    91.4193     3801
    91.4850     4133
    91.5507     3413
    91.6163     2889
    91.6820     3076
    91.7476     3340
    91.8133     3161
    91.8789     2788
    91.9446     2670
    92.0102     2938
    92.0759     3068
    92.1415     2910
    92.2072     2963
    92.2728     3049
    92.3385     3471
    92.4041     3786
    92.4698     3162
    92.5354     2966
    92.6011     2853
    92.6667     3038
    92.7324     2922
    92.7980     2633
    92.8637     2570
    92.9293     2510
    92.9950     2559
    93.0606     2407
    93.1263     2440
    93.1919     2396
    93.2576     2389
    93.3232     2478
    93.3889     2596
    93.4545     3130
    93.5202     2953
    93.5858     2742
    93.6515     2859
    93.7171     2896
    93.7828     2865
    93.8484     2846
    93.9141     2613
    93.9798     2609
    94.0454     2642
    94.1111     2693
    94.1767     2916
    94.2424     3006
    94.3080     2952
    94.3737     3191
    94.4393     3137
    94.5050     2861
    94.5706     2835
    94.6363     2624
    94.7019     2725
    94.7676     2681
    94.8332     2529
    94.8989     2497
    94.9645     2345
    95.0302     2419
    95.0958     2386
    95.1615     2406
    95.2271     2431
    95.2928     2430
    95.3584     2463
    95.4241     2409
    95.4897     2411
    95.5554     2487
    95.6210     2479
    95.6867     2570
    95.7523     2590
    95.8180     2550
    95.8836     2481
    95.9493     2438
    96.0149     2517
    96.0806     2558
    96.1463     2556
    96.2119     2705
    96.2776     3472
    96.3432     3480
    96.4089     3204
    96.4745     3449
    96.5402     3415
    96.6058     3369
    96.6715     3124
    96.7371     2869
    96.8028     2955
    96.8684     2834
    96.9341     2598
    96.9997     2495
    97.0654     2553
    97.1310     2602
    97.1967     2645
    97.2623     3004
    97.3280     3455
    97.3936     3156
    97.4593     3043
    97.5249     2809
    97.5906     2865
    97.6562     2916
    97.7219     2830
    97.7875     2712
    97.8532     2545
    97.9188     2511
    97.9845     2616
    98.0501     2708
    98.1158     2934
    98.1814     2951
    98.2471     3071
    98.3128     3239
    98.3784     3683
    98.4441     3731
    98.5097     3434
    98.5754     3154
    98.6410     3200
    98.7067     3513
    98.7723     4073
    98.8380     4336
    98.9036     4171
    98.9693     4484
    99.0349     4393
    99.1006     3862
    99.1662     3510
    99.2319     3263
    99.2975     3401
    99.3632     3535
    99.4288     3045
    99.4945     2775
    99.5601     2821
    99.6258     2688
    99.6914     3198
    99.7571     3364
    99.8227     3093
    99.8884     2937
    99.9540     2845
    99.9934     2753