File: powder_X-ray_diffraction/variable-temperature_experiments/NaTaO2F2/raw_data/290°C.XY
! Initial file:   D:\ZAKARY_OUAIL\MA_THESE\Deuxième_année_de_thèse\DRX\Manips_DRX\1st_NaTaO2F2_XRK900\NaTaO2F2-Lent_290°C.xrdml
! Initial format:  58
! WAVE (A):      1.54060     1.54060     1.00000
! REM : data have been multiplied by     1.0000
! X_data : 2 Theta (deg.)
! Y_data : Intensity (arb. units)
!     X         Y
!--------------------------------------------------------------------------------
    10.0116     6293
    10.0772     6248
    10.1429     6251
    10.2086     6231
    10.2742     6108
    10.3399     6217
    10.4055     6284
    10.4712     6170
    10.5368     6027
    10.6025     6001
    10.6681     5978
    10.7338     6067
    10.7994     6369
    10.8651     6418
    10.9307     6753
    10.9964     9564
    11.0620    26724
    11.1277    46163
    11.1933    14505
    11.2590     6930
    11.3246     6168
    11.3903     5975
    11.4559     5739
    11.5216     5785
    11.5872     5735
    11.6529     5707
    11.7185     5679
    11.7842     5713
    11.8498     5589
    11.9155     5538
    11.9811     5453
    12.0468     5393
    12.1124     5668
    12.1781     5658
    12.2437     5426
    12.3094     5401
    12.3750     5386
    12.4407     5435
    12.5063     5495
    12.5720     5456
    12.6377     5215
    12.7033     5261
    12.7690     5448
    12.8346     5341
    12.9003     5398
    12.9659     5329
    13.0316     5111
    13.0972     5159
    13.1629     5207
    13.2285     5186
    13.2942     5173
    13.3598     5141
    13.4255     5188
    13.4911     5234
    13.5568     5221
    13.6224     5100
    13.6881     5121
    13.7537     5012
    13.8194     5044
    13.8850     4996
    13.9507     4887
    14.0163     4929
    14.0820     4987
    14.1476     4890
    14.2133     4908
    14.2789     4786
    14.3446     4909
    14.4102     4868
    14.4759     4816
    14.5415     4793
    14.6072     4878
    14.6728     4875
    14.7385     4775
    14.8041     4787
    14.8698     4894
    14.9355     4768
    15.0011     4615
    15.0668     4857
    15.1324     4913
    15.1981     4765
    15.2637     4563
    15.3294     4667
    15.3950     4680
    15.4607     4614
    15.5263     4644
    15.5920     4695
    15.6576     4620
    15.7233     4534
    15.7889     4569
    15.8546     4525
    15.9202     4661
    15.9859     4764
    16.0515     4581
    16.1172     4649
    16.1828     4647
    16.2485     4667
    16.3141     4703
    16.3798     4617
    16.4454     4636
    16.5111     4398
    16.5767     4496
    16.6424     4513
    16.7080     4367
    16.7737     4508
    16.8393     4361
    16.9050     4380
    16.9706     4463
    17.0363     4352
    17.1019     4442
    17.1676     4407
    17.2333     4436
    17.2989     4390
    17.3646     4392
    17.4302     4289
    17.4959     4282
    17.5615     4304
    17.6272     4329
    17.6928     4569
    17.7585     4449
    17.8241     4253
    17.8898     4249
    17.9554     4154
    18.0211     4313
    18.0867     4224
    18.1524     4143
    18.2180     4145
    18.2837     4165
    18.3493     4114
    18.4150     4329
    18.4806     4127
    18.5463     4154
    18.6119     4133
    18.6776     4229
    18.7432     4120
    18.8089     4036
    18.8745     4133
    18.9402     4319
    19.0058     4343
    19.0715     4570
    19.1371     4627
    19.2028     4570
    19.2684     4612
    19.3341     4686
    19.3997     5194
    19.4654     6129
    19.5311    12878
    19.5967    74112
    19.6624   108820
    19.7280    32801
    19.7937     8134
    19.8593     5277
    19.9250     4557
    19.9906     4435
    20.0563     4261
    20.1219     4502
    20.1876     4490
    20.2532     4193
    20.3189     4062
    20.3845     4087
    20.4502     4009
    20.5158     3959
    20.5815     3824
    20.6471     4023
    20.7128     3948
    20.7784     3925
    20.8441     4009
    20.9097     3939
    20.9754     3971
    21.0410     3872
    21.1067     3895
    21.1723     3788
    21.2380     3838
    21.3036     3842
    21.3693     3836
    21.4349     3817
    21.5006     3782
    21.5662     3873
    21.6319     3802
    21.6975     3783
    21.7632     4035
    21.8288     4002
    21.8945     3932
    21.9602     3937
    22.0258     3871
    22.0915     3911
    22.1571     4037
    22.2228     4536
    22.2884     9789
    22.3541    17066
    22.4197     8235
    22.4854     4200
    22.5510     3993
    22.6167     3625
    22.6823     3787
    22.7480     3663
    22.8136     3724
    22.8793     3759
    22.9449     3724
    23.0106     3617
    23.0762     3601
    23.1419     3589
    23.2075     3626
    23.2732     3672
    23.3388     3635
    23.4045     3664
    23.4701     3759
    23.5358     3866
    23.6014     3881
    23.6671     3781
    23.7327     3778
    23.7984     4060
    23.8640     4065
    23.9297     4231
    23.9953     4516
    24.0610     5368
    24.1266    14611
    24.1923    44740
    24.2580    29243
    24.3236    37720
    24.3893    40660
    24.4549    15562
    24.5206     5096
    24.5862     4161
    24.6519     3993
    24.7175     3878
    24.7832     3690
    24.8488     3794
    24.9145     3826
    24.9801     3750
    25.0458     3695
    25.1114     3620
    25.1771     3712
    25.2427     3509
    25.3084     3619
    25.3740     3509
    25.4397     3602
    25.5053     3622
    25.5710     3482
    25.6366     3656
    25.7023     3472
    25.7679     3566
    25.8336     3555
    25.8992     3463
    25.9649     3564
    26.0305     3586
    26.0962     3615
    26.1618     3649
    26.2275     3659
    26.2931     3624
    26.3588     3574
    26.4244     3504
    26.4901     3481
    26.5558     3385
    26.6214     3503
    26.6871     3561
    26.7527     3476
    26.8184     3524
    26.8840     3636
    26.9497     3667
    27.0153     3553
    27.0810     3689
    27.1466     3751
    27.2123     3633
    27.2779     3667
    27.3436     3959
    27.4092     4119
    27.4749     4905
    27.5405     7009
    27.6062    19670
    27.6718    84711
    27.7375    57209
    27.8031    15894
    27.8688     5718
    27.9344     4245
    28.0001     3803
    28.0657     3681
    28.1314     3614
    28.1970     3706
    28.2627     3855
    28.3283     3767
    28.3940     3588
    28.4596     3543
    28.5253     3600
    28.5909     3569
    28.6566     3557
    28.7222     3639
    28.7879     3614
    28.8536     3524
    28.9192     3704
    28.9849     3861
    29.0505     4274
    29.1162     5446
    29.1818    22031
    29.2475    26534
    29.3131    23014
    29.3788    19260
    29.4444    11258
    29.5101     4556
    29.5757     3768
    29.6414     3502
    29.7070     3384
    29.7727     3372
    29.8383     3401
    29.9040     3396
    29.9696     3388
    30.0353     3264
    30.1009     3403
    30.1666     3231
    30.2322     3261
    30.2979     3404
    30.3635     3367
    30.4292     3244
    30.4948     3263
    30.5605     3155
    30.6261     3206
    30.6918     3227
    30.7574     3198
    30.8231     3218
    30.8887     3210
    30.9544     3172
    31.0200     3215
    31.0857     3028
    31.1514     3186
    31.2170     3083
    31.2827     3110
    31.3483     3232
    31.4140     3144
    31.4796     3109
    31.5453     3143
    31.6109     3178
    31.6766     3158
    31.7422     3143
    31.8079     3190
    31.8735     3168
    31.9392     3170
    32.0048     3056
    32.0705     3229
    32.1361     3194
    32.2018     3228
    32.2674     3197
    32.3331     3329
    32.3987     3405
    32.4644     3710
    32.5300     5070
    32.5957    20703
    32.6613    12825
    32.7270     6773
    32.7926     3848
    32.8583     3458
    32.9239     3618
    32.9896     3708
    33.0552     4174
    33.1209     5154
    33.1865    18049
    33.2522    30123
    33.3178    20736
    33.3835     6961
    33.4492     5067
    33.5148     7231
    33.5805    25454
    33.6461    22889
    33.7118    16737
    33.7774    17239
    33.8431    10124
    33.9087     5348
    33.9744     3560
    34.0400     3336
    34.1057     3207
    34.1713     3154
    34.2370     3293
    34.3026     3287
    34.3683     3347
    34.4339     3554
    34.4996     7368
    34.5652    12001
    34.6309     9194
    34.6965     4327
    34.7622     3373
    34.8278     3231
    34.8935     3475
    34.9591     3295
    35.0248     3030
    35.0904     2927
    35.1561     2944
    35.2217     2896
    35.2874     3057
    35.3530     3051
    35.4187     3043
    35.4843     2919
    35.5500     2933
    35.6156     3006
    35.6813     2911
    35.7470     2890
    35.8126     3081
    35.8783     2906
    35.9439     2948
    36.0096     2877
    36.0752     3009
    36.1409     2951
    36.2065     2894
    36.2722     2962
    36.3378     2867
    36.4035     3029
    36.4691     3001
    36.5348     3099
    36.6004     3821
    36.6661     9232
    36.7317     5789
    36.7974     5006
    36.8630     3255
    36.9287     3114
    36.9943     3003
    37.0600     3171
    37.1256     3425
    37.1913     6267
    37.2569     9458
    37.3226     6685
    37.3882     4259
    37.4539     3090
    37.5195     3548
    37.5852     3207
    37.6508     3237
    37.7165     2940
    37.7821     2804
    37.8478     2778
    37.9134     2815
    37.9791     2724
    38.0448     2725
    38.1104     2774
    38.1761     2831
    38.2417     2739
    38.3074     2777
    38.3730     2721
    38.4387     2813
    38.5043     2795
    38.5700     2762
    38.6356     2816
    38.7013     2776
    38.7669     2764
    38.8326     2719
    38.8982     2737
    38.9639     2785
    39.0295     2837
    39.0952     2713
    39.1608     2744
    39.2265     2734
    39.2921     2766
    39.3578     2878
    39.4234     2786
    39.4891     3016
    39.5547     3993
    39.6204     4289
    39.6860     3797
    39.7517     3549
    39.8173     4347
    39.8830     7828
    39.9486     5285
    40.0143     4392
    40.0799     3163
    40.1456     3091
    40.2112     3618
    40.2769     8939
    40.3425     6378
    40.4082     6814
    40.4739     3591
    40.5395     3109
    40.6052     3099
    40.6708     3154
    40.7365     4186
    40.8021     9889
    40.8678     8204
    40.9334     8978
    40.9991    13222
    41.0647    10866
    41.1304    14943
    41.1960     7866
    41.2617     5198
    41.3273     3176
    41.3930     2864
    41.4586     2673
    41.5243     2776
    41.5899     2732
    41.6556     2757
    41.7212     2742
    41.7869     2780
    41.8525     2745
    41.9182     2738
    41.9838     2768
    42.0495     2707
    42.1151     2803
    42.1808     2689
    42.2464     2808
    42.3121     2687
    42.3777     2609
    42.4434     2706
    42.5090     2715
    42.5747     2747
    42.6404     2737
    42.7060     2655
    42.7717     2722
    42.8373     2708
    42.9030     2766
    42.9686     2668
    43.0343     2684
    43.0999     2649
    43.1656     2689
    43.2312     2864
    43.2969     3333
    43.3625     3007
    43.4282     2945
    43.4938     2714
    43.5595     2717
    43.6251     2792
    43.6908     2679
    43.7564     2782
    43.8221     2708
    43.8877     2646
    43.9534     2787
    44.0190     2930
    44.0847     4156
    44.1503     3347
    44.2160     3506
    44.2816     3211
    44.3473     4832
    44.4129     4699
    44.4786     4174
    44.5442     3382
    44.6099     2767
    44.6755     2690
    44.7412     2719
    44.8068     2661
    44.8725     2625
    44.9381     2728
    45.0038     2720
    45.0695     2624
    45.1351     2782
    45.2008     2661
    45.2664     2769
    45.3321     2747
    45.3977     2928
    45.4634     3171
    45.5290     6011
    45.5947     9408
    45.6603     5675
    45.7260     5248
    45.7916     2962
    45.8573     2856
    45.9229     2757
    45.9886     2810
    46.0542     2795
    46.1199     2936
    46.1855     2997
    46.2512     3715
    46.3168     7004
    46.3825     3961
    46.4481     4818
    46.5138     2946
    46.5794     2832
    46.6451     2947
    46.7107     2778
    46.7764     2931
    46.8420     3167
    46.9077     4669
    46.9733     8640
    47.0390     5233
    47.1046     5884
    47.1703     3408
    47.2359     2995
    47.3016     3081
    47.3673     3227
    47.4329     3501
    47.4986     3777
    47.5642     5937
    47.6299    17907
    47.6955    12522
    47.7612    12131
    47.8268     6968
    47.8925     3927
    47.9581     3258
    48.0238     3253
    48.0894     3175
    48.1551     3468
    48.2207     6263
    48.2864    12428
    48.3520    11645
    48.4177     8582
    48.4833     6761
    48.5490     4451
    48.6146     8341
    48.6803    10656
    48.7459     6674
    48.8116     6532
    48.8772     3518
    48.9429     3067
    49.0085     2965
    49.0742     2818
    49.1398     2871
    49.2055     3060
    49.2711     3052
    49.3368     3509
    49.4024     3289
    49.4681     3322
    49.5337     3495
    49.5994     3557
    49.6651     3673
    49.7307     3939
    49.7964     6163
    49.8620    17959
    49.9277    10733
    49.9933    11632
    50.0590     6971
    50.1246     4177
    50.1903     3957
    50.2559     6288
    50.3216    11582
    50.3872     6582
    50.4529     7483
    50.5185     4410
    50.5842     3326
    50.6498     3076
    50.7155     2961
    50.7811     2952
    50.8468     2829
    50.9124     2973
    50.9781     3005
    51.0437     3004
    51.1094     3670
    51.1750     8282
    51.2407     5458
    51.3063     5799
    51.3720     4655
    51.4376     3759
    51.5033     2997
    51.5689     3238
    51.6346     2933
    51.7002     2838
    51.7659     2824
    51.8315     2835
    51.8972     2818
    51.9628     2801
    52.0285     2780
    52.0942     2860
    52.1598     2895
    52.2255     2984
    52.2911     3207
    52.3568     4080
    52.4224     8813
    52.4881     9090
    52.5537     6280
    52.6194     6366
    52.6850     4030
    52.7507     5130
    52.8163     6241
    52.8820     4558
    52.9476     4564
    53.0133     3463
    53.0789     2992
    53.1446     2822
    53.2102     2869
    53.2759     2883
    53.3415     2881
    53.4072     3076
    53.4728     3930
    53.5385     3711
    53.6041     3260
    53.6698     3317
    53.7354     2766
    53.8011     2793
    53.8667     2750
    53.9324     2837
    53.9980     2685
    54.0637     2756
    54.1293     3021
    54.1950     3109
    54.2607     2986
    54.3263     3000
    54.3920     2857
    54.4576     2723
    54.5233     2762
    54.5889     2675
    54.6546     2831
    54.7202     2705
    54.7859     2773
    54.8515     2872
    54.9172     2950
    54.9828     2983
    55.0485     3188
    55.1141     3796
    55.1798     8048
    55.2454     9314
    55.3111     5798
    55.3767     7308
    55.4424     4064
    55.5080     3539
    55.5737     3301
    55.6393     3059
    55.7050     3017
    55.7706     2853
    55.8363     2954
    55.9019     2846
    55.9676     3087
    56.0332     3639
    56.0989     5834
    56.1645     6362
    56.2302    11823
    56.2958     9972
    56.3615     6703
    56.4271     7051
    56.4928     3882
    56.5584     3109
    56.6241     3037
    56.6898     3101
    56.7554     3484
    56.8211     5258
    56.8867     8650
    56.9524     9312
    57.0180     6663
    57.0837     7647
    57.1493     7781
    57.2150     4708
    57.2806     4727
    57.3463     4231
    57.4119     3230
    57.4776     3064
    57.5432     3006
    57.6089     3075
    57.6745     3671
    57.7402     6923
    57.8058     7578
    57.8715     5292
    57.9371     7137
    58.0028     4193
    58.0684     3936
    58.1341     3407
    58.1997     3502
    58.2654     4720
    58.3310     8470
    58.3967     6273
    58.4623     5868
    58.5280     8008
    58.5936     9035
    58.6593     4779
    58.7249     6871
    58.7906     8986
    58.8562     7574
    58.9219     5009
    58.9876     6217
    59.0532     3786
    59.1189     3159
    59.1845     3098
    59.2502     2985
    59.3158     3240
    59.3815     3510
    59.4471     5701
    59.5128     8326
    59.5784     5450
    59.6441     5863
    59.7097     6110
    59.7754     8156
    59.8410    10808
    59.9067     5681
    59.9723     6683
    60.0380     5031
    60.1036     3326
    60.1693     3084
    60.2349     3077
    60.3006     3163
    60.3662     3446
    60.4319     4516
    60.4975    10201
    60.5632    13056
    60.6288     7330
    60.6945    10365
    60.7601     7248
    60.8258     5076
    60.8914     5375
    60.9571     4790
    61.0227     3645
    61.0884     3535
    61.1540     3158
    61.2197     2664
    61.2854     2757
    61.3510     2698
    61.4167     2586
    61.4823     2627
    61.5480     2684
    61.6136     2579
    61.6793     2653
    61.7449     2608
    61.8106     2487
    61.8762     2574
    61.9419     2534
    62.0075     2573
    62.0732     2576
    62.1388     2498
    62.2045     2534
    62.2701     2595
    62.3358     2610
    62.4014     2543
    62.4671     2576
    62.5327     2475
    62.5984     2551
    62.6640     2519
    62.7297     2550
    62.7953     2534
    62.8610     2533
    62.9266     2478
    62.9923     2514
    63.0579     2569
    63.1236     2627
    63.1892     2666
    63.2549     2694
    63.3205     3019
    63.3862     3759
    63.4518     3469
    63.5175     2963
    63.5831     3355
    63.6488     3004
    63.7145     3176
    63.7801     4123
    63.8458     3605
    63.9114     3207
    63.9771     3618
    64.0427     3775
    64.1084     3546
    64.1740     2897
    64.2397     3219
    64.3053     2749
    64.3710     2553
    64.4366     2562
    64.5023     2520
    64.5679     2443
    64.6336     2668
    64.6992     2771
    64.7649     2792
    64.8305     2769
    64.8962     2588
    64.9618     2552
    65.0275     2528
    65.0931     2485
    65.1588     2589
    65.2244     2480
    65.2901     2422
    65.3557     2415
    65.4214     2359
    65.4870     2498
    65.5527     2485
    65.6183     2462
    65.6840     2474
    65.7496     2485
    65.8153     2524
    65.8810     2386
    65.9466     2349
    66.0123     2470
    66.0779     2478
    66.1436     2413
    66.2092     2461
    66.2749     2501
    66.3405     2501
    66.4062     2478
    66.4718     2441
    66.5375     2543
    66.6031     2490
    66.6688     2413
    66.7344     2444
    66.8001     2557
    66.8657     2380
    66.9314     2372
    66.9970     2468
    67.0627     2390
    67.1283     2496
    67.1940     2535
    67.2596     2379
    67.3253     2493
    67.3909     2578
    67.4566     2551
    67.5222     2455
    67.5879     2379
    67.6535     2501
    67.7192     2365
    67.7848     2477
    67.8505     2510
    67.9161     2756
    67.9818     3782
    68.0474     3667
    68.1131     3196
    68.1787     3342
    68.2444     3990
    68.3101     5073
    68.3757     3305
    68.4414     3160
    68.5070     3650
    68.5727     2795
    68.6383     2694
    68.7040     2607
    68.7696     2527
    68.8353     2512
    68.9009     2538
    68.9666     2601
    69.0322     2756
    69.0979     3472
    69.1635     4818
    69.2292     3818
    69.2948     3270
    69.3605     3718
    69.4261     3710
    69.4918     3261
    69.5574     2899
    69.6231     3431
    69.6887     4687
    69.7544     7604
    69.8200     5923
    69.8857     4133
    69.9513     5527
    70.0170     4542
    70.0826     3174
    70.1483     3031
    70.2139     2974
    70.2796     3129
    70.3452     3745
    70.4109     5235
    70.4765     4056
    70.5422     4193
    70.6078     5809
    70.6735     4837
    70.7392     3684
    70.8048     3623
    70.8705     3561
    70.9361     3225
    71.0018     4190
    71.0674     4092
    71.1331     3045
    71.1987     3231
    71.2644     3484
    71.3300     2919
    71.3957     2935
    71.4613     3317
    71.5270     4385
    71.5926     4830
    71.6583     3465
    71.7239     3486
    71.7896     3708
    71.8552     2936
    71.9209     2646
    71.9865     2560
    72.0522     2618
    72.1178     2602
    72.1835     2595
    72.2491     2880
    72.3148     3699
    72.3804     3862
    72.4461     2906
    72.5117     3161
    72.5774     3334
    72.6430     2642
    72.7087     2656
    72.7743     2984
    72.8400     3808
    72.9057     4216
    72.9713     3321
    73.0370     3273
    73.1026     3942
    73.1683     4042
    73.2339     3448
    73.2996     3125
    73.3652     3485
    73.4309     3483
    73.4965     3066
    73.5622     3668
    73.6278     5774
    73.6935     5603
    73.7591     4050
    73.8248     4019
    73.8904     4298
    73.9561     3417
    74.0217     2713
    74.0874     2476
    74.1530     2535
    74.2187     2492
    74.2843     2456
    74.3500     2504
    74.4156     2509
    74.4813     2409
    74.5469     2487
    74.6126     2425
    74.6782     2376
    74.7439     2389
    74.8095     2482
    74.8752     2509
    74.9408     2402
    75.0065     2362
    75.0722     2432
    75.1378     2395
    75.2035     2547
    75.2691     2548
    75.3348     2565
    75.4004     2473
    75.4661     2550
    75.5317     2615
    75.5974     2593
    75.6630     2470
    75.7287     2536
    75.7943     2634
    75.8600     2908
    75.9256     3118
    75.9913     3613
    76.0569     4426
    76.1226     4913
    76.1882     3641
    76.2539     3526
    76.3195     3589
    76.3852     3197
    76.4508     2836
    76.5165     2927
    76.5821     3560
    76.6478     4482
    76.7134     3908
    76.7791     3292
    76.8447     3436
    76.9104     3471
    76.9760     2830
    77.0417     2650
    77.1073     2534
    77.1730     2510
    77.2386     2483
    77.3043     2587
    77.3699     2659
    77.4356     3022
    77.5013     2968
    77.5669     2597
    77.6326     2682
    77.6982     2859
    77.7639     2742
    77.8295     2672
    77.8952     2586
    77.9608     2843
    78.0265     2824
    78.0921     2849
    78.1578     3326
    78.2234     3615
    78.2891     3441
    78.3547     3647
    78.4204     4377
    78.4860     4117
    78.5517     4391
    78.6173     4399
    78.6830     3654
    78.7486     3322
    78.8143     3262
    78.8799     3076
    78.9456     2726
    79.0112     2797
    79.0769     2845
    79.1425     3418
    79.2082     3943
    79.2738     3364
    79.3395     3359
    79.4051     3512
    79.4708     3289
    79.5364     2935
    79.6021     3038
    79.6677     3144
    79.7334     3591
    79.7990     4630
    79.8647     4504
    79.9304     3522
    79.9960     3681
    80.0617     4859
    80.1273     5241
    80.1930     4917
    80.2586     5777
    80.3243     5607
    80.3899     5245
    80.4556     4811
    80.5212     4588
    80.5869     3807
    80.6525     3527
    80.7182     3676
    80.7838     3405
    80.8495     3430
    80.9151     3311
    80.9808     3036
    81.0464     2897
    81.1121     2961
    81.1777     2728
    81.2434     2598
    81.3090     2542
    81.3747     2560
    81.4403     2604
    81.5060     2784
    81.5716     3080
    81.6373     3632
    81.7029     3598
    81.7686     3040
    81.8342     2948
    81.8999     3244
    81.9655     3173
    82.0312     3007
    82.0968     3020
    82.1625     2744
    82.2281     2715
    82.2938     2905
    82.3595     3148
    82.4251     3809
    82.4908     2859
    82.5564     2707
    82.6221     2869
    82.6877     3100
    82.7534     2539
    82.8190     2609
    82.8847     2537
    82.9503     2603
    83.0160     2779
    83.0816     2902
    83.1473     2786
    83.2129     2922
    83.2786     3309
    83.3442     3435
    83.4099     2895
    83.4755     2674
    83.5412     2822
    83.6068     2795
    83.6725     2495
    83.7381     2596
    83.8038     2436
    83.8694     2408
    83.9351     2383
    84.0007     2457
    84.0664     2389
    84.1320     2429
    84.1977     2531
    84.2633     2490
    84.3290     2683
    84.3946     2584
    84.4603     2573
    84.5260     2552
    84.5916     2655
    84.6573     2593
    84.7229     2530
    84.7886     2567
    84.8542     2524
    84.9199     2580
    84.9855     2914
    85.0512     2973
    85.1168     3324
    85.1825     3409
    85.2481     3873
    85.3138     4294
    85.3794     3881
    85.4451     3355
    85.5107     3128
    85.5764     3301
    85.6420     2868
    85.7077     2700
    85.7733     2609
    85.8390     2637
    85.9046     2653
    85.9703     3048
    86.0359     3016
    86.1016     2706
    86.1672     2687
    86.2329     2758
    86.2985     2785
    86.3642     2590
    86.4298     2746
    86.4955     3200
    86.5611     3193
    86.6268     2722
    86.6925     2669
    86.7581     2865
    86.8238     2977
    86.8894     2888
    86.9551     3036
    87.0207     3481
    87.0864     3158
    87.1520     2870
    87.2177     2797
    87.2833     2983
    87.3490     2931
    87.4146     2775
    87.4803     2846
    87.5459     3035
    87.6116     3562
    87.6772     2908
    87.7429     2767
    87.8085     2824
    87.8742     3165
    87.9398     3506
    88.0055     3914
    88.0711     3325
    88.1368     2843
    88.2024     2880
    88.2681     3360
    88.3337     3285
    88.3994     2813
    88.4650     2664
    88.5307     2566
    88.5963     2696
    88.6620     2663
    88.7276     2564
    88.7933     3018
    88.8589     3358
    88.9246     2869
    88.9902     2703
    89.0559     2713
    89.1216     3051
    89.1872     3008
    89.2529     3057
    89.3185     2646
    89.3842     2603
    89.4498     2552
    89.5155     2725
    89.5811     2746
    89.6468     2869
    89.7124     3505
    89.7781     3639
    89.8437     3307
    89.9094     3558
    89.9750     3582
    90.0407     3459
    90.1063     3157
    90.1720     3498
    90.2376     3719
    90.3033     2986
    90.3689     2729
    90.4346     2802
    90.5002     3016
    90.5659     2927
    90.6315     2947
    90.6972     3145
    90.7628     2864
    90.8285     2807
    90.8941     2848
    90.9598     3030
    91.0254     3237
    91.0911     3470
    91.1567     3398
    91.2224     3107
    91.2880     2999
    91.3537     3507
    91.4193     3754
    91.4850     3930
    91.5507     3159
    91.6163     2961
    91.6820     3055
    91.7476     3128
    91.8133     3002
    91.8789     2773
    91.9446     2829
    92.0102     2958
    92.0759     3011
    92.1415     2865
    92.2072     2934
    92.2728     3217
    92.3385     3776
    92.4041     3431
    92.4698     2920
    92.5354     2835
    92.6011     2849
    92.6667     3054
    92.7324     2730
    92.7980     2491
    92.8637     2480
    92.9293     2501
    92.9950     2534
    93.0606     2439
    93.1263     2428
    93.1919     2472
    93.2576     2497
    93.3232     2596
    93.3889     2898
    93.4545     3115
    93.5202     2795
    93.5858     2651
    93.6515     2910
    93.7171     2927
    93.7828     2847
    93.8484     2530
    93.9141     2700
    93.9798     2697
    94.0454     2715
    94.1111     2809
    94.1767     3112
    94.2424     2998
    94.3080     2988
    94.3737     3296
    94.4393     3012
    94.5050     2766
    94.5706     2765
    94.6363     2729
    94.7019     2770
    94.7676     2552
    94.8332     2485
    94.8989     2419
    94.9645     2485
    95.0302     2463
    95.0958     2439
    95.1615     2459
    95.2271     2318
    95.2928     2342
    95.3584     2436
    95.4241     2500
    95.4897     2412
    95.5554     2584
    95.6210     2459
    95.6867     2513
    95.7523     2512
    95.8180     2553
    95.8836     2513
    95.9493     2564
    96.0149     2551
    96.0806     2506
    96.1463     2743
    96.2119     3174
    96.2776     3475
    96.3432     3258
    96.4089     3498
    96.4745     3445
    96.5402     3268
    96.6058     3175
    96.6715     3003
    96.7371     2896
    96.8028     2908
    96.8684     2566
    96.9341     2615
    96.9997     2428
    97.0654     2605
    97.1310     2602
    97.1967     2760
    97.2623     3237
    97.3280     3357
    97.3936     3099
    97.4593     2890
    97.5249     2729
    97.5906     2912
    97.6562     2973
    97.7219     2858
    97.7875     2602
    97.8532     2696
    97.9188     2481
    97.9845     2702
    98.0501     2877
    98.1158     2982
    98.1814     2986
    98.2471     3254
    98.3128     3427
    98.3784     3751
    98.4441     3735
    98.5097     3281
    98.5754     3023
    98.6410     3318
    98.7067     3704
    98.7723     4196
    98.8380     4344
    98.9036     4149
    98.9693     4466
    99.0349     4382
    99.1006     3563
    99.1662     3335
    99.2319     3261
    99.2975     3440
    99.3632     3364
    99.4288     2875
    99.4945     2741
    99.5601     2734
    99.6258     2783
    99.6914     3273
    99.7571     3359
    99.8227     3086
    99.8884     2789
    99.9540     2660
    99.9934     2817