File: powder_X-ray_diffraction/variable-temperature_experiments/NaTaO2F2/raw_data/300°C.XY
! Initial file:   D:\ZAKARY_OUAIL\MA_THESE\Deuxième_année_de_thèse\DRX\Manips_DRX\1st_NaTaO2F2_XRK900\NaTaO2F2-Lent_300°C.xrdml
! Initial format:  58
! WAVE (A):      1.54060     1.54060     1.00000
! REM : data have been multiplied by     1.0000
! X_data : 2 Theta (deg.)
! Y_data : Intensity (arb. units)
!     X         Y
!--------------------------------------------------------------------------------
    10.0116     6326
    10.0772     6330
    10.1429     6214
    10.2086     6101
    10.2742     6211
    10.3399     6094
    10.4055     6100
    10.4712     5995
    10.5368     6067
    10.6025     5807
    10.6681     5961
    10.7338     6139
    10.7994     6265
    10.8651     6270
    10.9307     6633
    10.9964     9579
    11.0620    26750
    11.1277    46014
    11.1933    15317
    11.2590     6733
    11.3246     6136
    11.3903     5925
    11.4559     5937
    11.5216     5930
    11.5872     5673
    11.6529     5725
    11.7185     5473
    11.7842     5738
    11.8498     5512
    11.9155     5634
    11.9811     5557
    12.0468     5603
    12.1124     5590
    12.1781     5456
    12.2437     5541
    12.3094     5562
    12.3750     5412
    12.4407     5452
    12.5063     5335
    12.5720     5272
    12.6377     5203
    12.7033     5469
    12.7690     5328
    12.8346     5362
    12.9003     5213
    12.9659     5237
    13.0316     5248
    13.0972     5335
    13.1629     5284
    13.2285     5123
    13.2942     5165
    13.3598     5181
    13.4255     5068
    13.4911     5065
    13.5568     4896
    13.6224     5073
    13.6881     5026
    13.7537     5005
    13.8194     4952
    13.8850     4950
    13.9507     5095
    14.0163     5122
    14.0820     4854
    14.1476     4848
    14.2133     4879
    14.2789     5033
    14.3446     4708
    14.4102     4978
    14.4759     4779
    14.5415     4871
    14.6072     4738
    14.6728     4852
    14.7385     4688
    14.8041     4739
    14.8698     4775
    14.9355     4799
    15.0011     4695
    15.0668     4753
    15.1324     4660
    15.1981     4496
    15.2637     4704
    15.3294     4449
    15.3950     4644
    15.4607     4510
    15.5263     4706
    15.5920     4659
    15.6576     4737
    15.7233     4650
    15.7889     4700
    15.8546     4592
    15.9202     4614
    15.9859     4611
    16.0515     4635
    16.1172     4698
    16.1828     4605
    16.2485     4774
    16.3141     4660
    16.3798     4662
    16.4454     4764
    16.5111     4646
    16.5767     4511
    16.6424     4358
    16.7080     4518
    16.7737     4401
    16.8393     4562
    16.9050     4456
    16.9706     4485
    17.0363     4403
    17.1019     4392
    17.1676     4419
    17.2333     4519
    17.2989     4419
    17.3646     4413
    17.4302     4405
    17.4959     4368
    17.5615     4258
    17.6272     4292
    17.6928     4646
    17.7585     4564
    17.8241     4304
    17.8898     4203
    17.9554     4261
    18.0211     4347
    18.0867     4162
    18.1524     4267
    18.2180     4141
    18.2837     4148
    18.3493     4166
    18.4150     4260
    18.4806     4102
    18.5463     4247
    18.6119     4194
    18.6776     4171
    18.7432     4144
    18.8089     4043
    18.8745     4226
    18.9402     4246
    19.0058     4560
    19.0715     4524
    19.1371     4560
    19.2028     4557
    19.2684     4568
    19.3341     4778
    19.3997     5294
    19.4654     6165
    19.5311    14182
    19.5967    82344
    19.6624   107700
    19.7280    28189
    19.7937     7214
    19.8593     5125
    19.9250     4527
    19.9906     4344
    20.0563     4256
    20.1219     4421
    20.1876     4372
    20.2532     4164
    20.3189     4132
    20.3845     4060
    20.4502     4057
    20.5158     3885
    20.5815     3998
    20.6471     3966
    20.7128     3891
    20.7784     3880
    20.8441     3944
    20.9097     3811
    20.9754     3910
    21.0410     3801
    21.1067     3912
    21.1723     3903
    21.2380     3728
    21.3036     3927
    21.3693     3848
    21.4349     3808
    21.5006     3743
    21.5662     3797
    21.6319     3787
    21.6975     3842
    21.7632     3959
    21.8288     4135
    21.8945     3827
    21.9602     3872
    22.0258     3816
    22.0915     3772
    22.1571     4032
    22.2228     4583
    22.2884    10596
    22.3541    16685
    22.4197     8060
    22.4854     4131
    22.5510     3866
    22.6167     3731
    22.6823     3664
    22.7480     3770
    22.8136     3721
    22.8793     3637
    22.9449     3736
    23.0106     3613
    23.0762     3641
    23.1419     3594
    23.2075     3476
    23.2732     3717
    23.3388     3625
    23.4045     3735
    23.4701     3698
    23.5358     3912
    23.6014     3925
    23.6671     3844
    23.7327     3930
    23.7984     3942
    23.8640     3912
    23.9297     4215
    23.9953     4554
    24.0610     5490
    24.1266    15689
    24.1923    44727
    24.2580    29134
    24.3236    40490
    24.3893    39510
    24.4549    14530
    24.5206     4994
    24.5862     4117
    24.6519     3891
    24.7175     3732
    24.7832     3702
    24.8488     3647
    24.9145     3753
    24.9801     3946
    25.0458     3643
    25.1114     3546
    25.1771     3556
    25.2427     3593
    25.3084     3596
    25.3740     3618
    25.4397     3540
    25.5053     3573
    25.5710     3465
    25.6366     3431
    25.7023     3544
    25.7679     3554
    25.8336     3461
    25.8992     3450
    25.9649     3488
    26.0305     3487
    26.0962     3560
    26.1618     3694
    26.2275     3558
    26.2931     3557
    26.3588     3581
    26.4244     3427
    26.4901     3444
    26.5558     3393
    26.6214     3476
    26.6871     3483
    26.7527     3501
    26.8184     3558
    26.8840     3620
    26.9497     3597
    27.0153     3692
    27.0810     3630
    27.1466     3623
    27.2123     3675
    27.2779     3721
    27.3436     3780
    27.4092     4239
    27.4749     5025
    27.5405     7029
    27.6062    23883
    27.6718    83145
    27.7375    53608
    27.8031    14098
    27.8688     5427
    27.9344     4285
    28.0001     3848
    28.0657     3701
    28.1314     3661
    28.1970     3911
    28.2627     3800
    28.3283     3729
    28.3940     3730
    28.4596     3468
    28.5253     3520
    28.5909     3550
    28.6566     3607
    28.7222     3464
    28.7879     3642
    28.8536     3679
    28.9192     3533
    28.9849     3777
    29.0505     4289
    29.1162     5804
    29.1818    24338
    29.2475    26201
    29.3131    22692
    29.3788    18170
    29.4444    10371
    29.5101     4261
    29.5757     3760
    29.6414     3472
    29.7070     3373
    29.7727     3203
    29.8383     3389
    29.9040     3341
    29.9696     3416
    30.0353     3292
    30.1009     3292
    30.1666     3209
    30.2322     3319
    30.2979     3383
    30.3635     3190
    30.4292     3201
    30.4948     3200
    30.5605     3155
    30.6261     3232
    30.6918     3236
    30.7574     3186
    30.8231     3232
    30.8887     3042
    30.9544     3101
    31.0200     3135
    31.0857     3280
    31.1514     3142
    31.2170     3195
    31.2827     3047
    31.3483     3233
    31.4140     3245
    31.4796     2984
    31.5453     3088
    31.6109     3165
    31.6766     3188
    31.7422     3132
    31.8079     3146
    31.8735     3167
    31.9392     3147
    32.0048     3136
    32.0705     3165
    32.1361     3259
    32.2018     3155
    32.2674     3205
    32.3331     3267
    32.3987     3499
    32.4644     3709
    32.5300     6123
    32.5957    20171
    32.6613    13413
    32.7270     5896
    32.7926     3684
    32.8583     3375
    32.9239     3383
    32.9896     3764
    33.0552     4093
    33.1209     5164
    33.1865    19748
    33.2522    29028
    33.3178    20567
    33.3835     6643
    33.4492     5212
    33.5148     8496
    33.5805    27878
    33.6461    21518
    33.7118    15135
    33.7774    16277
    33.8431    10160
    33.9087     4986
    33.9744     3405
    34.0400     3374
    34.1057     3205
    34.1713     3290
    34.2370     3244
    34.3026     3404
    34.3683     3311
    34.4339     3750
    34.4996     9319
    34.5652    10598
    34.6309     8504
    34.6965     4050
    34.7622     3180
    34.8278     3524
    34.8935     3309
    34.9591     3258
    35.0248     2965
    35.0904     2949
    35.1561     2871
    35.2217     2870
    35.2874     2981
    35.3530     2930
    35.4187     3004
    35.4843     2975
    35.5500     2912
    35.6156     3000
    35.6813     2934
    35.7470     2824
    35.8126     2986
    35.8783     3042
    35.9439     2973
    36.0096     2927
    36.0752     2981
    36.1409     3012
    36.2065     2903
    36.2722     2920
    36.3378     2834
    36.4035     2852
    36.4691     3040
    36.5348     3103
    36.6004     3838
    36.6661     9074
    36.7317     5874
    36.7974     4958
    36.8630     3190
    36.9287     3061
    36.9943     3080
    37.0600     3078
    37.1256     3531
    37.1913     7673
    37.2569     8475
    37.3226     6763
    37.3882     3799
    37.4539     3136
    37.5195     3670
    37.5852     3190
    37.6508     3264
    37.7165     2947
    37.7821     2872
    37.8478     2847
    37.9134     2810
    37.9791     2831
    38.0448     2705
    38.1104     2785
    38.1761     2805
    38.2417     2669
    38.3074     2706
    38.3730     2742
    38.4387     2777
    38.5043     2781
    38.5700     2745
    38.6356     2881
    38.7013     2771
    38.7669     2772
    38.8326     2727
    38.8982     2802
    38.9639     2879
    39.0295     2664
    39.0952     2662
    39.1608     2733
    39.2265     2824
    39.2921     2762
    39.3578     2851
    39.4234     2790
    39.4891     3114
    39.5547     4282
    39.6204     4255
    39.6860     3932
    39.7517     3390
    39.8173     4969
    39.8830     6958
    39.9486     5660
    40.0143     4086
    40.0799     3249
    40.1456     3128
    40.2112     3771
    40.2769     9299
    40.3425     6170
    40.4082     6566
    40.4739     3626
    40.5395     3152
    40.6052     3121
    40.6708     3349
    40.7365     4817
    40.8021    11039
    40.8678     7442
    40.9334     8969
    40.9991    13212
    41.0647    12758
    41.1304    12405
    41.1960     8289
    41.2617     4348
    41.3273     3087
    41.3930     2910
    41.4586     2755
    41.5243     2792
    41.5899     2761
    41.6556     2680
    41.7212     2738
    41.7869     2715
    41.8525     2709
    41.9182     2700
    41.9838     2701
    42.0495     2735
    42.1151     2671
    42.1808     2755
    42.2464     2732
    42.3121     2702
    42.3777     2628
    42.4434     2657
    42.5090     2724
    42.5747     2672
    42.6404     2720
    42.7060     2797
    42.7717     2752
    42.8373     2813
    42.9030     2733
    42.9686     2593
    43.0343     2678
    43.0999     2740
    43.1656     2804
    43.2312     2916
    43.2969     3233
    43.3625     2955
    43.4282     2832
    43.4938     2700
    43.5595     2649
    43.6251     2652
    43.6908     2693
    43.7564     2801
    43.8221     2728
    43.8877     2699
    43.9534     2835
    44.0190     3063
    44.0847     4120
    44.1503     3452
    44.2160     3491
    44.2816     3310
    44.3473     5105
    44.4129     4153
    44.4786     4072
    44.5442     3100
    44.6099     2808
    44.6755     2687
    44.7412     2769
    44.8068     2791
    44.8725     2676
    44.9381     2731
    45.0038     2738
    45.0695     2793
    45.1351     2646
    45.2008     2651
    45.2664     2766
    45.3321     2848
    45.3977     2951
    45.4634     3258
    45.5290     6977
    45.5947     8071
    45.6603     6014
    45.7260     4558
    45.7916     3013
    45.8573     2784
    45.9229     2845
    45.9886     2795
    46.0542     2785
    46.1199     2848
    46.1855     3083
    46.2512     3891
    46.3168     7002
    46.3825     4119
    46.4481     4762
    46.5138     3131
    46.5794     2806
    46.6451     2857
    46.7107     2975
    46.7764     2886
    46.8420     3304
    46.9077     5703
    46.9733     8393
    47.0390     5143
    47.1046     5565
    47.1703     3223
    47.2359     2983
    47.3016     3114
    47.3673     3163
    47.4329     3556
    47.4986     3986
    47.5642     7116
    47.6299    20319
    47.6955    10978
    47.7612    12036
    47.8268     5870
    47.8925     3635
    47.9581     3248
    48.0238     3081
    48.0894     3238
    48.1551     3498
    48.2207     7279
    48.2864    12701
    48.3520    10978
    48.4177     8576
    48.4833     6208
    48.5490     4443
    48.6146    10060
    48.6803     9380
    48.7459     7148
    48.8116     5844
    48.8772     3367
    48.9429     3146
    49.0085     2940
    49.0742     2881
    49.1398     2854
    49.2055     2988
    49.2711     3070
    49.3368     3314
    49.4024     3259
    49.4681     3446
    49.5337     3683
    49.5994     3436
    49.6651     3677
    49.7307     4026
    49.7964     7028
    49.8620    18685
    49.9277    10042
    49.9933    11574
    50.0590     6176
    50.1246     4153
    50.1903     4238
    50.2559     7817
    50.3216    10682
    50.3872     6527
    50.4529     7089
    50.5185     3756
    50.5842     3244
    50.6498     2944
    50.7155     2877
    50.7811     2957
    50.8468     2854
    50.9124     2960
    50.9781     3041
    51.0437     3101
    51.1094     4264
    51.1750     9132
    51.2407     4707
    51.3063     6146
    51.3720     4022
    51.4376     3424
    51.5033     3145
    51.5689     3015
    51.6346     2797
    51.7002     2860
    51.7659     2813
    51.8315     2844
    51.8972     2847
    51.9628     2818
    52.0285     2755
    52.0942     2897
    52.1598     2952
    52.2255     3127
    52.2911     3119
    52.3568     4244
    52.4224     9736
    52.4881     8386
    52.5537     6410
    52.6194     6163
    52.6850     4216
    52.7507     5653
    52.8163     6105
    52.8820     4673
    52.9476     4513
    53.0133     3351
    53.0789     2934
    53.1446     2806
    53.2102     2759
    53.2759     2807
    53.3415     2883
    53.4072     3136
    53.4728     3926
    53.5385     3499
    53.6041     3291
    53.6698     3288
    53.7354     2847
    53.8011     2797
    53.8667     2758
    53.9324     2819
    53.9980     2823
    54.0637     2833
    54.1293     3070
    54.1950     3203
    54.2607     2933
    54.3263     2973
    54.3920     2758
    54.4576     2777
    54.5233     2843
    54.5889     2795
    54.6546     2746
    54.7202     2803
    54.7859     2747
    54.8515     2805
    54.9172     2805
    54.9828     2998
    55.0485     3268
    55.1141     4442
    55.1798    10329
    55.2454     7290
    55.3111     6412
    55.3767     6324
    55.4424     3847
    55.5080     3531
    55.5737     3134
    55.6393     3212
    55.7050     2928
    55.7706     2939
    55.8363     2961
    55.9019     3000
    55.9676     3160
    56.0332     4152
    56.0989     5903
    56.1645     6829
    56.2302    11843
    56.2958     9267
    56.3615     6780
    56.4271     6776
    56.4928     3741
    56.5584     3175
    56.6241     3329
    56.6898     3309
    56.7554     3815
    56.8211     6353
    56.8867     9416
    56.9524     8422
    57.0180     6661
    57.0837     7680
    57.1493     7389
    57.2150     4371
    57.2806     4929
    57.3463     3910
    57.4119     3255
    57.4776     3045
    57.5432     3114
    57.6089     3182
    57.6745     4082
    57.7402     7506
    57.8058     6896
    57.8715     5860
    57.9371     6761
    58.0028     3914
    58.0684     3901
    58.1341     3334
    58.1997     3740
    58.2654     5900
    58.3310     8713
    58.3967     5541
    58.4623     6386
    58.5280     8545
    58.5936     7626
    58.6593     5045
    58.7249     7592
    58.7906     9878
    58.8562     5815
    58.9219     5653
    58.9876     5551
    59.0532     3643
    59.1189     3076
    59.1845     2973
    59.2502     2925
    59.3158     3107
    59.3815     3722
    59.4471     6348
    59.5128     7725
    59.5784     4969
    59.6441     5905
    59.7097     5833
    59.7754     8371
    59.8410    10178
    59.9067     5672
    59.9723     7060
    60.0380     4614
    60.1036     3186
    60.1693     3106
    60.2349     3073
    60.3006     3272
    60.3662     3529
    60.4319     5104
    60.4975    12566
    60.5632    10810
    60.6288     7576
    60.6945    10848
    60.7601     6291
    60.8258     5236
    60.8914     5427
    60.9571     4160
    61.0227     3768
    61.0884     3670
    61.1540     2914
    61.2197     2866
    61.2854     2680
    61.3510     2655
    61.4167     2694
    61.4823     2515
    61.5480     2616
    61.6136     2686
    61.6793     2490
    61.7449     2590
    61.8106     2676
    61.8762     2624
    61.9419     2635
    62.0075     2604
    62.0732     2502
    62.1388     2601
    62.2045     2513
    62.2701     2565
    62.3358     2604
    62.4014     2622
    62.4671     2523
    62.5327     2524
    62.5984     2565
    62.6640     2534
    62.7297     2440
    62.7953     2520
    62.8610     2630
    62.9266     2459
    62.9923     2528
    63.0579     2481
    63.1236     2532
    63.1892     2767
    63.2549     2865
    63.3205     3058
    63.3862     4063
    63.4518     3400
    63.5175     3063
    63.5831     3384
    63.6488     3002
    63.7145     3346
    63.7801     4217
    63.8458     3094
    63.9114     3266
    63.9771     3536
    64.0427     3805
    64.1084     3374
    64.1740     2929
    64.2397     3221
    64.3053     2764
    64.3710     2527
    64.4366     2577
    64.5023     2508
    64.5679     2592
    64.6336     2661
    64.6992     2815
    64.7649     2860
    64.8305     2795
    64.8962     2667
    64.9618     2650
    65.0275     2480
    65.0931     2420
    65.1588     2505
    65.2244     2495
    65.2901     2386
    65.3557     2475
    65.4214     2454
    65.4870     2433
    65.5527     2432
    65.6183     2422
    65.6840     2408
    65.7496     2378
    65.8153     2389
    65.8810     2414
    65.9466     2558
    66.0123     2437
    66.0779     2450
    66.1436     2411
    66.2092     2533
    66.2749     2516
    66.3405     2405
    66.4062     2473
    66.4718     2534
    66.5375     2498
    66.6031     2476
    66.6688     2523
    66.7344     2381
    66.8001     2551
    66.8657     2467
    66.9314     2430
    66.9970     2434
    67.0627     2507
    67.1283     2483
    67.1940     2518
    67.2596     2430
    67.3253     2458
    67.3909     2459
    67.4566     2502
    67.5222     2441
    67.5879     2444
    67.6535     2548
    67.7192     2584
    67.7848     2509
    67.8505     2608
    67.9161     2837
    67.9818     3973
    68.0474     3627
    68.1131     3007
    68.1787     3621
    68.2444     4975
    68.3101     4256
    68.3757     3041
    68.4414     3700
    68.5070     3256
    68.5727     2698
    68.6383     2577
    68.7040     2578
    68.7696     2486
    68.8353     2552
    68.9009     2610
    68.9666     2687
    69.0322     2923
    69.0979     3809
    69.1635     4804
    69.2292     3480
    69.2948     3230
    69.3605     3998
    69.4261     3621
    69.4918     3006
    69.5574     3059
    69.6231     3644
    69.6887     4913
    69.7544     7847
    69.8200     5236
    69.8857     4390
    69.9513     5740
    70.0170     4000
    70.0826     3172
    70.1483     3093
    70.2139     3054
    70.2796     3068
    70.3452     4021
    70.4109     5213
    70.4765     3876
    70.5422     4705
    70.6078     5817
    70.6735     4354
    70.7392     3726
    70.8048     3867
    70.8705     3486
    70.9361     3297
    71.0018     4888
    71.0674     3550
    71.1331     2990
    71.1987     3569
    71.2644     3356
    71.3300     2903
    71.3957     2907
    71.4613     3428
    71.5270     4623
    71.5926     4380
    71.6583     3265
    71.7239     3499
    71.7896     3628
    71.8552     2942
    71.9209     2712
    71.9865     2687
    72.0522     2578
    72.1178     2623
    72.1835     2696
    72.2491     3071
    72.3148     4148
    72.3804     3524
    72.4461     2969
    72.5117     3229
    72.5774     3206
    72.6430     2685
    72.7087     2622
    72.7743     2987
    72.8400     4130
    72.9057     3923
    72.9713     3240
    73.0370     3584
    73.1026     4203
    73.1683     3807
    73.2339     3294
    73.2996     3335
    73.3652     3805
    73.4309     3235
    73.4965     3206
    73.5622     4640
    73.6278     5973
    73.6935     5153
    73.7591     3816
    73.8248     4285
    73.8904     4035
    73.9561     3011
    74.0217     2540
    74.0874     2645
    74.1530     2497
    74.2187     2474
    74.2843     2502
    74.3500     2471
    74.4156     2410
    74.4813     2459
    74.5469     2432
    74.6126     2493
    74.6782     2424
    74.7439     2483
    74.8095     2442
    74.8752     2274
    74.9408     2473
    75.0065     2445
    75.0722     2458
    75.1378     2591
    75.2035     2526
    75.2691     2542
    75.3348     2511
    75.4004     2522
    75.4661     2463
    75.5317     2605
    75.5974     2531
    75.6630     2616
    75.7287     2571
    75.7943     2792
    75.8600     2821
    75.9256     3196
    75.9913     3612
    76.0569     4702
    76.1226     4457
    76.1882     3544
    76.2539     3473
    76.3195     3489
    76.3852     3127
    76.4508     2839
    76.5165     3240
    76.5821     4089
    76.6478     4437
    76.7134     3421
    76.7791     3200
    76.8447     3521
    76.9104     3202
    76.9760     2661
    77.0417     2577
    77.1073     2615
    77.1730     2528
    77.2386     2580
    77.3043     2492
    77.3699     2739
    77.4356     3156
    77.5013     2975
    77.5669     2710
    77.6326     2757
    77.6982     2874
    77.7639     2673
    77.8295     2577
    77.8952     2636
    77.9608     2920
    78.0265     2866
    78.0921     3121
    78.1578     3347
    78.2234     3633
    78.2891     3637
    78.3547     4041
    78.4204     4171
    78.4860     4183
    78.5517     4469
    78.6173     4110
    78.6830     3438
    78.7486     3412
    78.8143     3354
    78.8799     2859
    78.9456     2857
    79.0112     2684
    79.0769     3016
    79.1425     3825
    79.2082     3788
    79.2738     3363
    79.3395     3305
    79.4051     3401
    79.4708     3105
    79.5364     2961
    79.6021     3058
    79.6677     3255
    79.7334     3955
    79.7990     5060
    79.8647     3888
    79.9304     3464
    79.9960     4065
    80.0617     5085
    80.1273     4864
    80.1930     4764
    80.2586     5900
    80.3243     5809
    80.3899     5084
    80.4556     4656
    80.5212     4388
    80.5869     3896
    80.6525     3674
    80.7182     3602
    80.7838     3387
    80.8495     3338
    80.9151     3050
    80.9808     2924
    81.0464     2855
    81.1121     2891
    81.1777     2631
    81.2434     2506
    81.3090     2579
    81.3747     2611
    81.4403     2683
    81.5060     2993
    81.5716     3393
    81.6373     3738
    81.7029     3340
    81.7686     3015
    81.8342     3143
    81.8999     3120
    81.9655     3155
    82.0312     2984
    82.0968     2862
    82.1625     2777
    82.2281     2835
    82.2938     2918
    82.3595     3213
    82.4251     3674
    82.4908     2907
    82.5564     2649
    82.6221     2889
    82.6877     3032
    82.7534     2684
    82.8190     2406
    82.8847     2706
    82.9503     2743
    83.0160     2866
    83.0816     2804
    83.1473     2861
    83.2129     2997
    83.2786     3471
    83.3442     3072
    83.4099     2781
    83.4755     2673
    83.5412     2866
    83.6068     2683
    83.6725     2522
    83.7381     2388
    83.8038     2509
    83.8694     2460
    83.9351     2445
    84.0007     2516
    84.0664     2405
    84.1320     2540
    84.1977     2533
    84.2633     2658
    84.3290     2617
    84.3946     2499
    84.4603     2545
    84.5260     2487
    84.5916     2620
    84.6573     2533
    84.7229     2514
    84.7886     2563
    84.8542     2550
    84.9199     2718
    84.9855     3039
    85.0512     3088
    85.1168     3313
    85.1825     3721
    85.2481     4004
    85.3138     4303
    85.3794     3625
    85.4451     3344
    85.5107     3273
    85.5764     3240
    85.6420     2770
    85.7077     2769
    85.7733     2594
    85.8390     2615
    85.9046     2938
    85.9703     3122
    86.0359     2814
    86.1016     2652
    86.1672     2595
    86.2329     2717
    86.2985     2656
    86.3642     2665
    86.4298     2948
    86.4955     3383
    86.5611     2983
    86.6268     2685
    86.6925     2749
    86.7581     2995
    86.8238     2935
    86.8894     2952
    86.9551     3231
    87.0207     3231
    87.0864     3045
    87.1520     2825
    87.2177     3021
    87.2833     3005
    87.3490     2839
    87.4146     2717
    87.4803     2821
    87.5459     3308
    87.6116     3272
    87.6772     2909
    87.7429     2813
    87.8085     2912
    87.8742     3284
    87.9398     3764
    88.0055     3697
    88.0711     2905
    88.1368     2821
    88.2024     2965
    88.2681     3385
    88.3337     2998
    88.3994     2634
    88.4650     2619
    88.5307     2569
    88.5963     2593
    88.6620     2626
    88.7276     2733
    88.7933     3142
    88.8589     3270
    88.9246     2894
    88.9902     2660
    89.0559     2816
    89.1216     3178
    89.1872     3010
    89.2529     2760
    89.3185     2605
    89.3842     2540
    89.4498     2582
    89.5155     2806
    89.5811     2725
    89.6468     2956
    89.7124     3460
    89.7781     3623
    89.8437     3466
    89.9094     3764
    89.9750     3459
    90.0407     3384
    90.1063     3355
    90.1720     3731
    90.2376     3041
    90.3033     2834
    90.3689     2801
    90.4346     2860
    90.5002     2900
    90.5659     3038
    90.6315     3004
    90.6972     2896
    90.7628     2837
    90.8285     2705
    90.8941     2791
    90.9598     3087
    91.0254     3353
    91.0911     3457
    91.1567     3360
    91.2224     3003
    91.2880     3142
    91.3537     3582
    91.4193     3902
    91.4850     3782
    91.5507     3187
    91.6163     2960
    91.6820     3118
    91.7476     3097
    91.8133     2942
    91.8789     2762
    91.9446     2851
    92.0102     3082
    92.0759     3059
    92.1415     3086
    92.2072     3009
    92.2728     3421
    92.3385     3717
    92.4041     3146
    92.4698     2948
    92.5354     2899
    92.6011     2907
    92.6667     2937
    92.7324     2557
    92.7980     2561
    92.8637     2512
    92.9293     2475
    92.9950     2413
    93.0606     2509
    93.1263     2450
    93.1919     2541
    93.2576     2529
    93.3232     2800
    93.3889     3214
    93.4545     2830
    93.5202     2641
    93.5858     2886
    93.6515     3034
    93.7171     2920
    93.7828     2683
    93.8484     2707
    93.9141     2620
    93.9798     2710
    94.0454     2767
    94.1111     2972
    94.1767     2998
    94.2424     2920
    94.3080     2961
    94.3737     3257
    94.4393     2991
    94.5050     2733
    94.5706     2672
    94.6363     2780
    94.7019     2596
    94.7676     2491
    94.8332     2428
    94.8989     2416
    94.9645     2574
    95.0302     2396
    95.0958     2526
    95.1615     2438
    95.2271     2446
    95.2928     2400
    95.3584     2356
    95.4241     2484
    95.4897     2429
    95.5554     2491
    95.6210     2503
    95.6867     2562
    95.7523     2453
    95.8180     2510
    95.8836     2552
    95.9493     2601
    96.0149     2571
    96.0806     2561
    96.1463     2773
    96.2119     3466
    96.2776     3325
    96.3432     3334
    96.4089     3574
    96.4745     3265
    96.5402     3223
    96.6058     2997
    96.6715     2936
    96.7371     3045
    96.8028     2702
    96.8684     2512
    96.9341     2489
    96.9997     2485
    97.0654     2476
    97.1310     2699
    97.1967     2899
    97.2623     3320
    97.3280     3238
    97.3936     3123
    97.4593     2827
    97.5249     2894
    97.5906     2937
    97.6562     2883
    97.7219     2812
    97.7875     2632
    97.8532     2533
    97.9188     2608
    97.9845     2828
    98.0501     2885
    98.1158     2908
    98.1814     3003
    98.2471     3250
    98.3128     3563
    98.3784     3863
    98.4441     3486
    98.5097     3159
    98.5754     3231
    98.6410     3446
    98.7067     3869
    98.7723     4047
    98.8380     4204
    98.9036     4136
    98.9693     4421
    99.0349     4222
    99.1006     3575
    99.1662     3380
    99.2319     3259
    99.2975     3427
    99.3632     3104
    99.4288     2886
    99.4945     2727
    99.5601     2747
    99.6258     2918
    99.6914     3589
    99.7571     3225
    99.8227     2924
    99.8884     2716
    99.9540     2774
    99.9934     2859