File: powder_X-ray_diffraction/variable-temperature_experiments/NaTaO2F2/raw_data/40°C.XY
! Initial file:   D:\ZAKARY_OUAIL\MA_THESE\Deuxième_année_de_thèse\DRX\Manips_DRX\1st_NaTaO2F2_XRK900\NaTaO2F2-Lent_40°C.xrdml
! Initial format:  58
! WAVE (A):      1.54060     1.54060     1.00000
! REM : data have been multiplied by     1.0000
! X_data : 2 Theta (deg.)
! Y_data : Intensity (arb. units)
!     X         Y
!--------------------------------------------------------------------------------
    10.0116     7369
    10.0772     7301
    10.1429     7254
    10.2086     7382
    10.2742     7426
    10.3399     7350
    10.4055     7116
    10.4712     7283
    10.5368     7077
    10.6025     7052
    10.6681     7226
    10.7338     7082
    10.7994     7441
    10.8651     7268
    10.9307     7575
    10.9964     9354
    11.0620    19927
    11.1277    52370
    11.1933    21965
    11.2590     8074
    11.3246     7163
    11.3903     6853
    11.4559     6835
    11.5216     6784
    11.5872     6726
    11.6529     6686
    11.7185     6667
    11.7842     6724
    11.8498     6687
    11.9155     6584
    11.9811     6515
    12.0468     6550
    12.1124     6355
    12.1781     6297
    12.2437     6374
    12.3094     6249
    12.3750     6397
    12.4407     6359
    12.5063     6311
    12.5720     6291
    12.6377     6256
    12.7033     6220
    12.7690     6155
    12.8346     6141
    12.9003     6249
    12.9659     6050
    13.0316     6193
    13.0972     5996
    13.1629     6116
    13.2285     6111
    13.2942     5824
    13.3598     5970
    13.4255     5869
    13.4911     5882
    13.5568     5899
    13.6224     5876
    13.6881     5783
    13.7537     5963
    13.8194     5733
    13.8850     5736
    13.9507     5762
    14.0163     5641
    14.0820     5652
    14.1476     5709
    14.2133     5618
    14.2789     5755
    14.3446     5533
    14.4102     5471
    14.4759     5604
    14.5415     5636
    14.6072     5455
    14.6728     5570
    14.7385     5465
    14.8041     5400
    14.8698     5304
    14.9355     5483
    15.0011     5382
    15.0668     5187
    15.1324     5411
    15.1981     5400
    15.2637     5329
    15.3294     5434
    15.3950     5281
    15.4607     5332
    15.5263     5145
    15.5920     5299
    15.6576     5157
    15.7233     5157
    15.7889     5163
    15.8546     5068
    15.9202     5331
    15.9859     5269
    16.0515     5179
    16.1172     5146
    16.1828     5320
    16.2485     5355
    16.3141     5351
    16.3798     5400
    16.4454     5444
    16.5111     5232
    16.5767     5231
    16.6424     5003
    16.7080     5081
    16.7737     4991
    16.8393     5146
    16.9050     4952
    16.9706     4948
    17.0363     5008
    17.1019     4893
    17.1676     5110
    17.2333     5030
    17.2989     5171
    17.3646     5072
    17.4302     4718
    17.4959     4796
    17.5615     4737
    17.6272     4784
    17.6928     4890
    17.7585     4987
    17.8241     5066
    17.8898     4806
    17.9554     4906
    18.0211     4790
    18.0867     4739
    18.1524     4633
    18.2180     4684
    18.2837     4693
    18.3493     4755
    18.4150     4447
    18.4806     4605
    18.5463     4693
    18.6119     4688
    18.6776     4708
    18.7432     4513
    18.8089     4629
    18.8745     4544
    18.9402     4562
    19.0058     4432
    19.0715     4706
    19.1371     5021
    19.2028     5033
    19.2684     4933
    19.3341     4902
    19.3997     5025
    19.4654     5181
    19.5311     5911
    19.5967     7710
    19.6624    21277
    19.7280   106148
    19.7937    80157
    19.8593    16963
    19.9250     6816
    19.9906     5337
    20.0563     4876
    20.1219     4708
    20.1876     4843
    20.2532     4860
    20.3189     4821
    20.3845     4454
    20.4502     4400
    20.5158     4395
    20.5815     4467
    20.6471     4386
    20.7128     4320
    20.7784     4232
    20.8441     4404
    20.9097     4214
    20.9754     4243
    21.0410     4231
    21.1067     4229
    21.1723     4180
    21.2380     4219
    21.3036     4142
    21.3693     4223
    21.4349     4210
    21.5006     3979
    21.5662     4132
    21.6319     4137
    21.6975     4151
    21.7632     4105
    21.8288     4239
    21.8945     4534
    21.9602     4273
    22.0258     4244
    22.0915     4285
    22.1571     4126
    22.2228     4279
    22.2884     4751
    22.3541    10537
    22.4197    18194
    22.4854     8872
    22.5510     4469
    22.6167     4250
    22.6823     4005
    22.7480     4070
    22.8136     4016
    22.8793     4050
    22.9449     4052
    23.0106     4097
    23.0762     3925
    23.1419     3857
    23.2075     3934
    23.2732     4003
    23.3388     3930
    23.4045     3901
    23.4701     4050
    23.5358     3978
    23.6014     3994
    23.6671     4029
    23.7327     4291
    23.7984     4155
    23.8640     4130
    23.9297     4271
    23.9953     4609
    24.0610     5099
    24.1266     6959
    24.1923    28439
    24.2580    38028
    24.3236    16505
    24.3893    12970
    24.4549    45791
    24.5206    33061
    24.5862     9324
    24.6519     4653
    24.7175     4052
    24.7832     3981
    24.8488     3992
    24.9145     3888
    24.9801     3826
    25.0458     4006
    25.1114     3980
    25.1771     3773
    25.2427     3840
    25.3084     3720
    25.3740     3708
    25.4397     3738
    25.5053     3631
    25.5710     3667
    25.6366     3642
    25.7023     3518
    25.7679     3604
    25.8336     3653
    25.8992     3577
    25.9649     3578
    26.0305     3806
    26.0962     4020
    26.1618     3962
    26.2275     3761
    26.2931     3588
    26.3588     3622
    26.4244     3701
    26.4901     3561
    26.5558     3502
    26.6214     3465
    26.6871     3452
    26.7527     3480
    26.8184     3663
    26.8840     3775
    26.9497     3665
    27.0153     3829
    27.0810     3712
    27.1466     3681
    27.2123     3801
    27.2779     3738
    27.3436     3724
    27.4092     3826
    27.4749     3995
    27.5405     4480
    27.6062     5100
    27.6718     7423
    27.7375    20216
    27.8031    80068
    27.8688    54673
    27.9344    16115
    28.0001     6108
    28.0657     4404
    28.1314     4038
    28.1970     3801
    28.2627     3613
    28.3283     3785
    28.3940     4218
    28.4596     3868
    28.5253     3682
    28.5909     3621
    28.6566     3563
    28.7222     3615
    28.7879     3567
    28.8536     3524
    28.9192     3573
    28.9849     3692
    29.0505     3767
    29.1162     4079
    29.1818     4633
    29.2475     7420
    29.3131    34517
    29.3788    23786
    29.4444    12532
    29.5101    17918
    29.5757    13228
    29.6414     6733
    29.7070     3857
    29.7727     3641
    29.8383     3445
    29.9040     3413
    29.9696     3488
    30.0353     3518
    30.1009     3349
    30.1666     3346
    30.2322     3272
    30.2979     3324
    30.3635     3289
    30.4292     3320
    30.4948     3389
    30.5605     3316
    30.6261     3239
    30.6918     3277
    30.7574     3234
    30.8231     3261
    30.8887     3186
    30.9544     3150
    31.0200     3184
    31.0857     3214
    31.1514     3182
    31.2170     3132
    31.2827     3134
    31.3483     3042
    31.4140     3102
    31.4796     3070
    31.5453     3086
    31.6109     3103
    31.6766     3238
    31.7422     3229
    31.8079     3173
    31.8735     3088
    31.9392     3226
    32.0048     3133
    32.0705     3126
    32.1361     3190
    32.2018     3236
    32.2674     3270
    32.3331     3279
    32.3987     3327
    32.4644     3216
    32.5300     3119
    32.5957     3162
    32.6613     3572
    32.7270     3791
    32.7926     5388
    32.8583    22891
    32.9239    12786
    32.9896     6366
    33.0552     4037
    33.1209     4251
    33.1865     4746
    33.2522    13310
    33.3178    32001
    33.3835    21456
    33.4492     7839
    33.5148     4310
    33.5805     4103
    33.6461     4167
    33.7118     5248
    33.7774    12861
    33.8431    31821
    33.9087    30451
    33.9744    15772
    34.0400     5901
    34.1057     3738
    34.1713     3321
    34.2370     3312
    34.3026     3273
    34.3683     3155
    34.4339     3113
    34.4996     3173
    34.5652     3312
    34.6309     3442
    34.6965     3722
    34.7622     7292
    34.8278    11882
    34.8935     9111
    34.9591     4232
    35.0248     3301
    35.0904     3577
    35.1561     3585
    35.2217     3457
    35.2874     3148
    35.3530     2959
    35.4187     3043
    35.4843     3044
    35.5500     2883
    35.6156     2897
    35.6813     2927
    35.7470     2822
    35.8126     2924
    35.8783     2865
    35.9439     2961
    36.0096     2963
    36.0752     2868
    36.1409     3021
    36.2065     3101
    36.2722     2985
    36.3378     2919
    36.4035     2909
    36.4691     2892
    36.5348     3109
    36.6004     3256
    36.6661     8391
    36.7317     6298
    36.7974     6186
    36.8630     3410
    36.9287     3044
    36.9943     2955
    37.0600     2914
    37.1256     2825
    37.1913     2915
    37.2569     3063
    37.3226     3192
    37.3882     3600
    37.4539     7562
    37.5195     9063
    37.5852     6750
    37.6508     4079
    37.7165     3214
    37.7821     3783
    37.8478     3321
    37.9134     3119
    37.9791     2896
    38.0448     2793
    38.1104     2779
    38.1761     2753
    38.2417     2761
    38.3074     2729
    38.3730     2841
    38.4387     2767
    38.5043     2738
    38.5700     2755
    38.6356     2758
    38.7013     2707
    38.7669     2749
    38.8326     2722
    38.8982     2657
    38.9639     2692
    39.0295     2727
    39.0952     2747
    39.1608     2744
    39.2265     2608
    39.2921     2753
    39.3578     2712
    39.4234     2731
    39.4891     2764
    39.5547     2753
    39.6204     2800
    39.6860     3057
    39.7517     4285
    39.8173     4845
    39.8830     4071
    39.9486     3453
    40.0143     3227
    40.0799     3777
    40.1456     7194
    40.2112     5208
    40.2769     5064
    40.3425     7153
    40.4082     6891
    40.4739     6443
    40.5395     3772
    40.6052     3008
    40.6708     2870
    40.7365     2874
    40.8021     2813
    40.8678     2894
    40.9334     3153
    40.9991     3560
    41.0647     5735
    41.1304    11219
    41.1960     8308
    41.2617    16043
    41.3273     8090
    41.3930    15001
    41.4586     8081
    41.5243     8082
    41.5899     3739
    41.6556     2950
    41.7212     2925
    41.7869     2687
    41.8525     2716
    41.9182     2717
    41.9838     2583
    42.0495     2630
    42.1151     2650
    42.1808     2679
    42.2464     2626
    42.3121     2525
    42.3777     2576
    42.4434     2713
    42.5090     2662
    42.5747     2683
    42.6404     2736
    42.7060     2697
    42.7717     2673
    42.8373     2757
    42.9030     2732
    42.9686     2686
    43.0343     2596
    43.0999     2736
    43.1656     2551
    43.2312     2584
    43.2969     2696
    43.3625     2634
    43.4282     2699
    43.4938     3124
    43.5595     3341
    43.6251     3188
    43.6908     2819
    43.7564     2647
    43.8221     2659
    43.8877     2700
    43.9534     2639
    44.0190     2584
    44.0847     2594
    44.1503     2778
    44.2160     3033
    44.2816     3463
    44.3473     3422
    44.4129     3199
    44.4786     2866
    44.5442     2695
    44.6099     2922
    44.6755     3893
    44.7412     5651
    44.8068     4161
    44.8725     3968
    44.9381     2919
    45.0038     2746
    45.0695     2612
    45.1351     2610
    45.2008     2646
    45.2664     2587
    45.3321     2542
    45.3977     2604
    45.4634     2730
    45.5290     2822
    45.5947     2937
    45.6603     3141
    45.7260     7212
    45.7916     8341
    45.8573     6312
    45.9229     4730
    45.9886     2927
    46.0542     2701
    46.1199     2734
    46.1855     2789
    46.2512     2938
    46.3168     4522
    46.3825     6119
    46.4481     4247
    46.5138     4089
    46.5794     2838
    46.6451     2697
    46.7107     2649
    46.7764     2723
    46.8420     2584
    46.9077     2642
    46.9733     2639
    47.0390     2747
    47.1046     2989
    47.1703     3105
    47.2359     4480
    47.3016     9029
    47.3673     5098
    47.4329     5981
    47.4986     3409
    47.5642     2934
    47.6299     2931
    47.6955     3355
    47.7612     3506
    47.8268     4372
    47.8925     8691
    47.9581    18791
    48.0238     9677
    48.0894    11050
    48.1551     4900
    48.2207     3559
    48.2864     3456
    48.3520     3331
    48.4177     5331
    48.4833    12169
    48.5490    10397
    48.6146     8290
    48.6803     6260
    48.7459     3731
    48.8116     5024
    48.8772    12829
    48.9429     6595
    49.0085     8245
    49.0742     4382
    49.1398     3051
    49.2055     2867
    49.2711     2701
    49.3368     2843
    49.4024     3083
    49.4681     3475
    49.5337     2990
    49.5994     3517
    49.6651     3206
    49.7307     3108
    49.7964     3121
    49.8620     3293
    49.9277     3487
    49.9933     4801
    50.0590    14663
    50.1246    13494
    50.1903    11404
    50.2559     9028
    50.3216     4927
    50.3872     3677
    50.4529     3097
    50.5185     3202
    50.5842     3654
    50.6498     4978
    50.7155    10320
    50.7811     6708
    50.8468     6591
    50.9124     4625
    50.9781     3099
    51.0437     2825
    51.1094     2692
    51.1750     2746
    51.2407     2843
    51.3063     2748
    51.3720     2816
    51.4376     2916
    51.5033     3266
    51.5689     4369
    51.6346     9227
    51.7002     4273
    51.7659     6070
    51.8315     3900
    51.8972     3398
    51.9628     2938
    52.0285     3058
    52.0942     2797
    52.1598     2729
    52.2255     2616
    52.2911     2669
    52.3568     2797
    52.4224     2926
    52.4881     3038
    52.5537     4835
    52.6194    10408
    52.6850     7077
    52.7507     6757
    52.8163     5361
    52.8820     3072
    52.9476     2946
    53.0133     3240
    53.0789     5009
    53.1446     5325
    53.2102     4026
    53.2759     3878
    53.3415     3159
    53.4072     2749
    53.4728     2724
    53.5385     3552
    53.6041     4352
    53.6698     3148
    53.7354     3535
    53.8011     2936
    53.8667     2717
    53.9324     2648
    53.9980     2588
    54.0637     2501
    54.1293     2506
    54.1950     2455
    54.2607     2444
    54.3263     2651
    54.3920     2567
    54.4576     2635
    54.5233     2931
    54.5889     2865
    54.6546     2816
    54.7202     2678
    54.7859     2632
    54.8515     2670
    54.9172     2582
    54.9828     2613
    55.0485     2528
    55.1141     2618
    55.1798     2658
    55.2454     2601
    55.3111     2739
    55.3767     2808
    55.4424     2930
    55.5080     3172
    55.5737     3993
    55.6393     9114
    55.7050     8620
    55.7706     5884
    55.8363     7002
    55.9019     3813
    55.9676     3309
    56.0332     3504
    56.0989     3131
    56.1645     3310
    56.2302     3131
    56.2958     3996
    56.3615     9843
    56.4271     7960
    56.4928     6798
    56.5584     9437
    56.6241     5317
    56.6898     5894
    56.7554     3914
    56.8211     3819
    56.8867     3159
    56.9524     2840
    57.0180     2843
    57.0837     3076
    57.1493     3210
    57.2150     4678
    57.2806     8745
    57.3463     9979
    57.4119     7328
    57.4776     9396
    57.5432     6727
    57.6089     4401
    57.6745     4397
    57.7402     3358
    57.8058     2968
    57.8715     3195
    57.9371     4306
    58.0028     8430
    58.0684     4962
    58.1341     5593
    58.1997     5199
    58.2654     3527
    58.3310     3849
    58.3967     3145
    58.4623     3042
    58.5280     2987
    58.5936     3029
    58.6593     3247
    58.7249     4284
    58.7906     7274
    58.8562     6957
    58.9219     6413
    58.9876    11693
    59.0532     6092
    59.1189     5399
    59.1845     5836
    59.2502     4719
    59.3158     8744
    59.3815     6804
    59.4471     5110
    59.5128     6015
    59.5784     3725
    59.6441     3185
    59.7097     3516
    59.7754     5729
    59.8410    10370
    59.9067     8663
    59.9723    14019
    60.0380     8513
    60.1036     6522
    60.1693     5723
    60.2349     3329
    60.3006     2822
    60.3662     2774
    60.4319     2617
    60.4975     2721
    60.5632     2846
    60.6288     2949
    60.6945     3230
    60.7601     4241
    60.8258     9162
    60.8914     7159
    60.9571     8929
    61.0227     9926
    61.0884     5795
    61.1540     7373
    61.2197     5867
    61.2854     5276
    61.3510     5838
    61.4167     3946
    61.4823     3799
    61.5480     3322
    61.6136     2675
    61.6793     2479
    61.7449     2529
    61.8106     2570
    61.8762     2339
    61.9419     2535
    62.0075     2403
    62.0732     2471
    62.1388     2427
    62.2045     2561
    62.2701     2476
    62.3358     2444
    62.4014     2514
    62.4671     2604
    62.5327     2471
    62.5984     2458
    62.6640     2439
    62.7297     2459
    62.7953     2436
    62.8610     2363
    62.9266     2347
    62.9923     2300
    63.0579     2389
    63.1236     2432
    63.1892     2435
    63.2549     2407
    63.3205     2382
    63.3862     2430
    63.4518     2353
    63.5175     2446
    63.5831     2511
    63.6488     2546
    63.7145     2864
    63.7801     3597
    63.8458     3798
    63.9114     2960
    63.9771     3229
    64.0427     2909
    64.1084     2601
    64.1740     2605
    64.2397     3055
    64.3053     4719
    64.3710     5050
    64.4366     3482
    64.5023     3840
    64.5679     3524
    64.6336     2670
    64.6992     2377
    64.7649     2357
    64.8305     2312
    64.8962     2433
    64.9618     2352
    65.0275     2366
    65.0931     2424
    65.1588     2490
    65.2244     2498
    65.2901     2628
    65.3557     2654
    65.4214     2524
    65.4870     2448
    65.5527     2433
    65.6183     2318
    65.6840     2330
    65.7496     2322
    65.8153     2333
    65.8810     2295
    65.9466     2309
    66.0123     2347
    66.0779     2348
    66.1436     2358
    66.2092     2243
    66.2749     2261
    66.3405     2260
    66.4062     2307
    66.4718     2341
    66.5375     2251
    66.6031     2314
    66.6688     2463
    66.7344     2363
    66.8001     2552
    66.8657     2578
    66.9314     2289
    66.9970     2402
    67.0627     2376
    67.1283     2286
    67.1940     2302
    67.2596     2305
    67.3253     2307
    67.3909     2269
    67.4566     2283
    67.5222     2236
    67.5879     2385
    67.6535     2231
    67.7192     2203
    67.7848     2315
    67.8505     2392
    67.9161     2423
    67.9818     2494
    68.0474     3306
    68.1131     3070
    68.1787     2623
    68.2444     2915
    68.3101     2640
    68.3757     2411
    68.4414     2700
    68.5070     2770
    68.5727     2599
    68.6383     2727
    68.7040     2676
    68.7696     2477
    68.8353     2671
    68.9009     3343
    68.9666     5267
    69.0322     2939
    69.0979     3068
    69.1635     3815
    69.2292     2800
    69.2948     3309
    69.3605     3327
    69.4261     2678
    69.4918     2917
    69.5574     3090
    69.6231     2841
    69.6887     3202
    69.7544     3598
    69.8200     3556
    69.8857     3545
    69.9513     5854
    70.0170     6617
    70.0826     3987
    70.1483     4594
    70.2139     4917
    70.2796     4438
    70.3452     4280
    70.4109     3503
    70.4765     4821
    70.5422     5532
    70.6078     3288
    70.6735     3570
    70.7392     3966
    70.8048     3025
    70.8705     2667
    70.9361     2899
    71.0018     2713
    71.0674     2719
    71.1331     3288
    71.1987     4064
    71.2644     4311
    71.3300     4393
    71.3957     5773
    71.4613     3821
    71.5270     3517
    71.5926     3955
    71.6583     3052
    71.7239     3436
    71.7896     3759
    71.8552     2846
    71.9209     2999
    71.9865     3444
    72.0522     2881
    72.1178     3178
    72.1835     3461
    72.2491     3132
    72.3148     2917
    72.3804     2974
    72.4461     2823
    72.5117     2498
    72.5774     2453
    72.6430     2457
    72.7087     2544
    72.7743     2644
    72.8400     3251
    72.9057     4144
    72.9713     3010
    73.0370     2935
    73.1026     3257
    73.1683     2993
    73.2339     2736
    73.2996     3222
    73.3652     4173
    73.4309     3375
    73.4965     3125
    73.5622     3628
    73.6278     3327
    73.6935     3149
    73.7591     4186
    73.8248     4010
    73.8904     3070
    73.9561     3174
    74.0217     3367
    74.0874     2819
    74.1530     2646
    74.2187     3052
    74.2843     4905
    74.3500     4765
    74.4156     5043
    74.4813     3867
    74.5469     3705
    74.6126     3850
    74.6782     2861
    74.7439     2479
    74.8095     2316
    74.8752     2253
    74.9408     2356
    75.0065     2293
    75.0722     2321
    75.1378     2191
    75.2035     2324
    75.2691     2328
    75.3348     2343
    75.4004     2272
    75.4661     2271
    75.5317     2288
    75.5974     2300
    75.6630     2379
    75.7287     2384
    75.7943     2405
    75.8600     2359
    75.9256     2364
    75.9913     2391
    76.0569     2512
    76.1226     2577
    76.1882     2683
    76.2539     2780
    76.3195     2675
    76.3852     2904
    76.4508     3447
    76.5165     4720
    76.5821     4107
    76.6478     3189
    76.7134     3263
    76.7791     3577
    76.8447     2820
    76.9104     2552
    76.9760     2528
    77.0417     2484
    77.1073     2507
    77.1730     2659
    77.2386     3222
    77.3043     4221
    77.3699     4361
    77.4356     3190
    77.5013     3191
    77.5669     3445
    77.6326     3296
    77.6982     3254
    77.7639     2634
    77.8295     2591
    77.8952     2623
    77.9608     2709
    78.0265     2693
    78.0921     3026
    78.1578     2604
    78.2234     2448
    78.2891     2596
    78.3547     2574
    78.4204     2586
    78.4860     2909
    78.5517     3420
    78.6173     3625
    78.6830     3039
    78.7486     2983
    78.8143     3198
    78.8799     3546
    78.9456     3174
    79.0112     3097
    79.0769     3498
    79.1425     4175
    79.2082     3702
    79.2738     3954
    79.3395     4045
    79.4051     3495
    79.4708     3315
    79.5364     3470
    79.6021     3998
    79.6677     4157
    79.7334     3170
    79.7990     2924
    79.8647     3288
    79.9304     3217
    79.9960     2944
    80.0617     2872
    80.1273     2660
    80.1930     2740
    80.2586     3014
    80.3243     3621
    80.3899     5763
    80.4556     5693
    80.5212     5074
    80.5869     4833
    80.6525     5247
    80.7182     5031
    80.7838     5425
    80.8495     4714
    80.9151     3679
    80.9808     3387
    81.0464     3515
    81.1121     3386
    81.1777     3195
    81.2434     3526
    81.3090     3717
    81.3747     3307
    81.4403     3415
    81.5060     3264
    81.5716     3011
    81.6373     2797
    81.7029     2779
    81.7686     2533
    81.8342     2457
    81.8999     2426
    81.9655     2438
    82.0312     2391
    82.0968     2542
    82.1625     2806
    82.2281     3159
    82.2938     3488
    82.3595     3695
    82.4251     3910
    82.4908     3373
    82.5564     3122
    82.6221     3716
    82.6877     4175
    82.7534     2861
    82.8190     2636
    82.8847     2853
    82.9503     2882
    83.0160     2544
    83.0816     2586
    83.1473     2321
    83.2129     2388
    83.2786     2280
    83.3442     2431
    83.4099     2382
    83.4755     2381
    83.5412     2407
    83.6068     2540
    83.6725     2588
    83.7381     2536
    83.8038     2530
    83.8694     2746
    83.9351     3336
    84.0007     3014
    84.0664     2483
    84.1320     2617
    84.1977     2760
    84.2633     2521
    84.3290     2326
    84.3946     2368
    84.4603     2340
    84.5260     2399
    84.5916     2404
    84.6573     2435
    84.7229     2378
    84.7886     2396
    84.8542     2329
    84.9199     2312
    84.9855     2443
    85.0512     2374
    85.1168     2442
    85.1825     2325
    85.2481     2385
    85.3138     2385
    85.3794     2437
    85.4451     2658
    85.5107     2748
    85.5764     2926
    85.6420     2778
    85.7077     2943
    85.7733     3651
    85.8390     4006
    85.9046     3524
    85.9703     3300
    86.0359     3359
    86.1016     3468
    86.1672     3290
    86.2329     2833
    86.2985     2636
    86.3642     2496
    86.4298     2564
    86.4955     2367
    86.5611     2424
    86.6268     2470
    86.6925     2646
    86.7581     2850
    86.8238     2915
    86.8894     2591
    86.9551     2474
    87.0207     2751
    87.0864     2768
    87.1520     2922
    87.2177     3379
    87.2833     2889
    87.3490     3005
    87.4146     2918
    87.4803     2816
    87.5459     2756
    87.6116     2627
    87.6772     2600
    87.7429     2534
    87.8085     2753
    87.8742     3231
    87.9398     3314
    88.0055     3022
    88.0711     3501
    88.1368     3669
    88.2024     3153
    88.2681     3032
    88.3337     3142
    88.3994     3213
    88.4650     2943
    88.5307     2823
    88.5963     2800
    88.6620     2833
    88.7276     3277
    88.7933     3869
    88.8589     3196
    88.9246     2590
    88.9902     2660
    89.0559     3097
    89.1216     2930
    89.1872     2791
    89.2529     3199
    89.3185     3028
    89.3842     2611
    89.4498     2547
    89.5155     2806
    89.5811     2812
    89.6468     2570
    89.7124     2414
    89.7781     2622
    89.8437     2865
    89.9094     3511
    89.9750     2823
    90.0407     2979
    90.1063     2924
    90.1720     3127
    90.2376     2729
    90.3033     2692
    90.3689     2896
    90.4346     3183
    90.5002     3055
    90.5659     2864
    90.6315     2974
    90.6972     3049
    90.7628     3205
    90.8285     3181
    90.8941     2938
    90.9598     2789
    91.0254     2635
    91.0911     3015
    91.1567     3075
    91.2224     3267
    91.2880     2771
    91.3537     2984
    91.4193     3655
    91.4850     4415
    91.5507     3823
    91.6163     3048
    91.6820     3038
    91.7476     3456
    91.8133     3714
    91.8789     4080
    91.9446     3158
    92.0102     2746
    92.0759     2664
    92.1415     3103
    92.2072     3194
    92.2728     3051
    92.3385     2791
    92.4041     2669
    92.4698     2575
    92.5354     2598
    92.6011     2583
    92.6667     2541
    92.7324     2778
    92.7980     2731
    92.8637     2576
    92.9293     2728
    92.9950     2855
    93.0606     2976
    93.1263     3557
    93.1919     3488
    93.2576     2920
    93.3232     2755
    93.3889     2761
    93.4545     2971
    93.5202     2736
    93.5858     2440
    93.6515     2309
    93.7171     2369
    93.7828     2358
    93.8484     2371
    93.9141     2346
    93.9798     2232
    94.0454     2285
    94.1111     2307
    94.1767     2359
    94.2424     2342
    94.3080     2461
    94.3737     2728
    94.4393     3221
    94.5050     3008
    94.5706     2909
    94.6363     2825
    94.7019     2769
    94.7676     2973
    94.8332     2726
    94.8989     2846
    94.9645     3094
    95.0302     3201
    95.0958     2878
    95.1615     3157
    95.2271     2915
    95.2928     3000
    95.3584     2723
    95.4241     2682
    95.4897     2634
    95.5554     2530
    95.6210     2523
    95.6867     2447
    95.7523     2285
    95.8180     2326
    95.8836     2289
    95.9493     2232
    96.0149     2450
    96.0806     2312
    96.1463     2274
    96.2119     2278
    96.2776     2316
    96.3432     2275
    96.4089     2299
    96.4745     2272
    96.5402     2394
    96.6058     2458
    96.6715     2456
    96.7371     2406
    96.8028     2365
    96.8684     2413
    96.9341     2602
    96.9997     2904
    97.0654     2934
    97.1310     2978
    97.1967     2940
    97.2623     3542
    97.3280     3140
    97.3936     2857
    97.4593     2952
    97.5249     3291
    97.5906     3667
    97.6562     3249
    97.7219     3183
    97.7875     3006
    97.8532     2901
    97.9188     3127
    97.9845     3343
    98.0501     3067
    98.1158     2702
    98.1814     2450
    98.2471     2581
    98.3128     2597
    98.3784     2491
    98.4441     2444
    98.5097     2414
    98.5754     2456
    98.6410     2428
    98.7067     2441
    98.7723     2681
    98.8380     3073
    98.9036     3480
    98.9693     3318
    99.0349     3432
    99.1006     3934
    99.1662     4622
    99.2319     4802
    99.2975     3888
    99.3632     3324
    99.4288     3190
    99.4945     3533
    99.5601     3540
    99.6258     3353
    99.6914     3281
    99.7571     3374
    99.8227     3586
    99.8884     3575
    99.9540     3219
    99.9934     3055