File: powder_X-ray_diffraction/variable-temperature_experiments/NaTaO2F2/raw_data/60°C.XY
! Initial file:   D:\ZAKARY_OUAIL\MA_THESE\Deuxième_année_de_thèse\DRX\Manips_DRX\1st_NaTaO2F2_XRK900\NaTaO2F2-Lent_60°C.xrdml
! Initial format:  58
! WAVE (A):      1.54060     1.54060     1.00000
! REM : data have been multiplied by     1.0000
! X_data : 2 Theta (deg.)
! Y_data : Intensity (arb. units)
!     X         Y
!--------------------------------------------------------------------------------
    10.0116     7304
    10.0772     7269
    10.1429     7050
    10.2086     7163
    10.2742     7278
    10.3399     7030
    10.4055     7078
    10.4712     6842
    10.5368     6922
    10.6025     7205
    10.6681     6795
    10.7338     7134
    10.7994     7084
    10.8651     7259
    10.9307     7698
    10.9964     9461
    11.0620    20270
    11.1277    51456
    11.1933    21204
    11.2590     7890
    11.3246     7071
    11.3903     6762
    11.4559     6745
    11.5216     6844
    11.5872     6615
    11.6529     6591
    11.7185     6640
    11.7842     6545
    11.8498     6442
    11.9155     6514
    11.9811     6430
    12.0468     6411
    12.1124     6255
    12.1781     6277
    12.2437     6294
    12.3094     6318
    12.3750     6261
    12.4407     6225
    12.5063     6144
    12.5720     6119
    12.6377     6175
    12.7033     6204
    12.7690     6120
    12.8346     6055
    12.9003     6018
    12.9659     6006
    13.0316     6019
    13.0972     5997
    13.1629     5881
    13.2285     5968
    13.2942     5861
    13.3598     5962
    13.4255     5889
    13.4911     5899
    13.5568     5808
    13.6224     5756
    13.6881     5694
    13.7537     5724
    13.8194     5705
    13.8850     5664
    13.9507     5648
    14.0163     5658
    14.0820     5456
    14.1476     5726
    14.2133     5528
    14.2789     5650
    14.3446     5443
    14.4102     5596
    14.4759     5614
    14.5415     5517
    14.6072     5522
    14.6728     5438
    14.7385     5542
    14.8041     5417
    14.8698     5448
    14.9355     5348
    15.0011     5385
    15.0668     5256
    15.1324     5383
    15.1981     5478
    15.2637     5442
    15.3294     5217
    15.3950     5114
    15.4607     5280
    15.5263     5197
    15.5920     5184
    15.6576     5199
    15.7233     5224
    15.7889     5192
    15.8546     5160
    15.9202     5168
    15.9859     5135
    16.0515     5154
    16.1172     5112
    16.1828     5254
    16.2485     5261
    16.3141     5309
    16.3798     5232
    16.4454     5308
    16.5111     5239
    16.5767     5117
    16.6424     5061
    16.7080     5023
    16.7737     5036
    16.8393     4990
    16.9050     4931
    16.9706     4904
    17.0363     4905
    17.1019     4931
    17.1676     4820
    17.2333     4938
    17.2989     5057
    17.3646     4977
    17.4302     4934
    17.4959     4742
    17.5615     4774
    17.6272     4786
    17.6928     4818
    17.7585     4800
    17.8241     5013
    17.8898     4812
    17.9554     4610
    18.0211     4701
    18.0867     4631
    18.1524     4604
    18.2180     4578
    18.2837     4516
    18.3493     4531
    18.4150     4525
    18.4806     4480
    18.5463     4604
    18.6119     4828
    18.6776     4663
    18.7432     4560
    18.8089     4399
    18.8745     4499
    18.9402     4358
    19.0058     4358
    19.0715     4791
    19.1371     4850
    19.2028     4905
    19.2684     4791
    19.3341     4757
    19.3997     5016
    19.4654     5323
    19.5311     6040
    19.5967     7966
    19.6624    26323
    19.7280   116864
    19.7937    70729
    19.8593    14039
    19.9250     6433
    19.9906     4999
    20.0563     4887
    20.1219     4794
    20.1876     4940
    20.2532     4871
    20.3189     4696
    20.3845     4391
    20.4502     4378
    20.5158     4402
    20.5815     4275
    20.6471     4448
    20.7128     4236
    20.7784     4264
    20.8441     4296
    20.9097     4174
    20.9754     4198
    21.0410     4149
    21.1067     4191
    21.1723     4199
    21.2380     4115
    21.3036     4185
    21.3693     4047
    21.4349     4121
    21.5006     4122
    21.5662     4191
    21.6319     4151
    21.6975     4119
    21.7632     4152
    21.8288     4290
    21.8945     4484
    21.9602     4341
    22.0258     4148
    22.0915     4117
    22.1571     4226
    22.2228     4300
    22.2884     4807
    22.3541    11557
    22.4197    17719
    22.4854     8027
    22.5510     4393
    22.6167     4070
    22.6823     4099
    22.7480     4023
    22.8136     3933
    22.8793     4092
    22.9449     4046
    23.0106     3787
    23.0762     3862
    23.1419     3781
    23.2075     3786
    23.2732     3928
    23.3388     3963
    23.4045     4003
    23.4701     3890
    23.5358     3983
    23.6014     3976
    23.6671     4035
    23.7327     4126
    23.7984     4127
    23.8640     3990
    23.9297     4224
    23.9953     4537
    24.0610     4950
    24.1266     7067
    24.1923    30348
    24.2580    37485
    24.3236    15624
    24.3893    15876
    24.4549    46202
    24.5206    30116
    24.5862     7889
    24.6519     4529
    24.7175     4182
    24.7832     3992
    24.8488     3890
    24.9145     3861
    24.9801     3869
    25.0458     3961
    25.1114     3792
    25.1771     3760
    25.2427     3776
    25.3084     3776
    25.3740     3724
    25.4397     3739
    25.5053     3552
    25.5710     3778
    25.6366     3632
    25.7023     3624
    25.7679     3527
    25.8336     3582
    25.8992     3567
    25.9649     3651
    26.0305     3678
    26.0962     4036
    26.1618     3906
    26.2275     3638
    26.2931     3528
    26.3588     3516
    26.4244     3685
    26.4901     3527
    26.5558     3527
    26.6214     3483
    26.6871     3538
    26.7527     3577
    26.8184     3689
    26.8840     3563
    26.9497     3676
    27.0153     3804
    27.0810     3739
    27.1466     3654
    27.2123     3778
    27.2779     3711
    27.3436     3643
    27.4092     3713
    27.4749     4103
    27.5405     4492
    27.6062     5273
    27.6718     7700
    27.7375    25846
    27.8031    79173
    27.8688    49287
    27.9344    12420
    28.0001     5554
    28.0657     4306
    28.1314     3800
    28.1970     3793
    28.2627     3775
    28.3283     3860
    28.3940     3981
    28.4596     3923
    28.5253     3612
    28.5909     3675
    28.6566     3698
    28.7222     3581
    28.7879     3566
    28.8536     3631
    28.9192     3580
    28.9849     3536
    29.0505     3813
    29.1162     4181
    29.1818     4684
    29.2475     8793
    29.3131    35889
    29.3788    24095
    29.4444    12507
    29.5101    18584
    29.5757    12151
    29.6414     5532
    29.7070     3792
    29.7727     3463
    29.8383     3388
    29.9040     3434
    29.9696     3377
    30.0353     3400
    30.1009     3365
    30.1666     3278
    30.2322     3335
    30.2979     3302
    30.3635     3293
    30.4292     3277
    30.4948     3330
    30.5605     3217
    30.6261     3239
    30.6918     3167
    30.7574     3280
    30.8231     3365
    30.8887     3190
    30.9544     3287
    31.0200     3161
    31.0857     3268
    31.1514     3138
    31.2170     3188
    31.2827     3048
    31.3483     3070
    31.4140     3129
    31.4796     3177
    31.5453     3029
    31.6109     3101
    31.6766     3177
    31.7422     3140
    31.8079     3139
    31.8735     3137
    31.9392     3159
    32.0048     3197
    32.0705     3056
    32.1361     3196
    32.2018     3248
    32.2674     3236
    32.3331     3154
    32.3987     3219
    32.4644     3141
    32.5300     3255
    32.5957     3377
    32.6613     3721
    32.7270     3918
    32.7926     8540
    32.8583    18312
    32.9239    13784
    32.9896     4802
    33.0552     3912
    33.1209     4260
    33.1865     5098
    33.2522    15500
    33.3178    31532
    33.3835    21668
    33.4492     7210
    33.5148     4243
    33.5805     4085
    33.6461     4347
    33.7118     5922
    33.7774    18998
    33.8431    30132
    33.9087    27315
    33.9744    13518
    34.0400     5089
    34.1057     3699
    34.1713     3408
    34.2370     3118
    34.3026     3231
    34.3683     3143
    34.4339     3095
    34.4996     3276
    34.5652     3220
    34.6309     3421
    34.6965     3876
    34.7622    11274
    34.8278     8968
    34.8935     7829
    34.9591     3648
    35.0248     3299
    35.0904     3858
    35.1561     3313
    35.2217     3292
    35.2874     2875
    35.3530     2998
    35.4187     3020
    35.4843     2910
    35.5500     2913
    35.6156     2936
    35.6813     2894
    35.7470     2826
    35.8126     2945
    35.8783     2976
    35.9439     2924
    36.0096     2832
    36.0752     2928
    36.1409     2940
    36.2065     3053
    36.2722     3029
    36.3378     2863
    36.4035     2884
    36.4691     3022
    36.5348     3087
    36.6004     3380
    36.6661     8529
    36.7317     6573
    36.7974     6237
    36.8630     3285
    36.9287     2971
    36.9943     3061
    37.0600     2879
    37.1256     3025
    37.1913     2985
    37.2569     3019
    37.3226     3202
    37.3882     4135
    37.4539     9201
    37.5195     7556
    37.5852     6310
    37.6508     3527
    37.7165     3317
    37.7821     3624
    37.8478     3309
    37.9134     2993
    37.9791     2811
    38.0448     2848
    38.1104     2789
    38.1761     2763
    38.2417     2728
    38.3074     2804
    38.3730     2747
    38.4387     2731
    38.5043     2734
    38.5700     2669
    38.6356     2668
    38.7013     2799
    38.7669     2688
    38.8326     2771
    38.8982     2721
    38.9639     2854
    39.0295     2755
    39.0952     2790
    39.1608     2728
    39.2265     2643
    39.2921     2749
    39.3578     2763
    39.4234     2777
    39.4891     2793
    39.5547     2766
    39.6204     2851
    39.6860     2982
    39.7517     4801
    39.8173     4382
    39.8830     4120
    39.9486     3100
    40.0143     3199
    40.0799     4563
    40.1456     6893
    40.2112     5340
    40.2769     4666
    40.3425     7819
    40.4082     6453
    40.4739     6554
    40.5395     3663
    40.6052     2986
    40.6708     2808
    40.7365     2738
    40.8021     2862
    40.8678     2918
    40.9334     3158
    40.9991     3839
    41.0647     7923
    41.1304     9805
    41.1960    10228
    41.2617    12906
    41.3273     9949
    41.3930    14964
    41.4586     7256
    41.5243     6488
    41.5899     3200
    41.6556     2929
    41.7212     2814
    41.7869     2785
    41.8525     2761
    41.9182     2715
    41.9838     2705
    42.0495     2688
    42.1151     2650
    42.1808     2692
    42.2464     2693
    42.3121     2589
    42.3777     2628
    42.4434     2620
    42.5090     2651
    42.5747     2645
    42.6404     2649
    42.7060     2644
    42.7717     2769
    42.8373     2679
    42.9030     2625
    42.9686     2671
    43.0343     2733
    43.0999     2684
    43.1656     2607
    43.2312     2589
    43.2969     2603
    43.3625     2568
    43.4282     2715
    43.4938     3474
    43.5595     3128
    43.6251     3113
    43.6908     2759
    43.7564     2655
    43.8221     2600
    43.8877     2711
    43.9534     2557
    44.0190     2635
    44.0847     2630
    44.1503     2832
    44.2160     3118
    44.2816     3691
    44.3473     3117
    44.4129     3206
    44.4786     2883
    44.5442     2829
    44.6099     3117
    44.6755     5116
    44.7412     4837
    44.8068     4298
    44.8725     3319
    44.9381     2863
    45.0038     2645
    45.0695     2558
    45.1351     2604
    45.2008     2618
    45.2664     2562
    45.3321     2625
    45.3977     2704
    45.4634     2691
    45.5290     2950
    45.5947     2951
    45.6603     3351
    45.7260     9810
    45.7916     6353
    45.8573     7378
    45.9229     4041
    45.9886     2865
    46.0542     2728
    46.1199     2758
    46.1855     2833
    46.2512     2912
    46.3168     4695
    46.3825     5837
    46.4481     4297
    46.5138     3889
    46.5794     2754
    46.6451     2609
    46.7107     2749
    46.7764     2565
    46.8420     2670
    46.9077     2630
    46.9733     2755
    47.0390     2770
    47.1046     2923
    47.1703     3432
    47.2359     6199
    47.3016     8473
    47.3673     5215
    47.4329     5292
    47.4986     3072
    47.5642     2926
    47.6299     3100
    47.6955     3329
    47.7612     3754
    47.8268     5128
    47.8925    13040
    47.9581    14885
    48.0238    10465
    48.0894     8385
    48.1551     4137
    48.2207     3429
    48.2864     3268
    48.3520     3541
    48.4177     6859
    48.4833    12316
    48.5490     9998
    48.6146     8038
    48.6803     5669
    48.7459     3764
    48.8116     6176
    48.8772    12704
    48.9429     6118
    49.0085     7863
    49.0742     3769
    49.1398     2929
    49.2055     2852
    49.2711     2811
    49.3368     2767
    49.4024     3011
    49.4681     3224
    49.5337     3125
    49.5994     3296
    49.6651     3237
    49.7307     3159
    49.7964     3271
    49.8620     3299
    49.9277     3682
    49.9933     5766
    50.0590    17670
    50.1246    10951
    50.1903    12558
    50.2559     7154
    50.3216     4523
    50.3872     3501
    50.4529     3233
    50.5185     3395
    50.5842     3979
    50.6498     7293
    50.7155    10164
    50.7811     6085
    50.8468     6669
    50.9124     3691
    50.9781     2950
    51.0437     2922
    51.1094     2652
    51.1750     2703
    51.2407     2683
    51.3063     2968
    51.3720     2814
    51.4376     3081
    51.5033     3590
    51.5689     6979
    51.6346     6047
    51.7002     4750
    51.7659     4889
    51.8315     3877
    51.8972     3135
    51.9628     3159
    52.0285     2827
    52.0942     2778
    52.1598     2624
    52.2255     2664
    52.2911     2805
    52.3568     2923
    52.4224     2878
    52.4881     3157
    52.5537     5923
    52.6194    10913
    52.6850     6085
    52.7507     6868
    52.8163     4415
    52.8820     2955
    52.9476     2915
    53.0133     3660
    53.0789     5445
    53.1446     4907
    53.2102     4089
    53.2759     4005
    53.3415     2926
    53.4072     2720
    53.4728     2781
    53.5385     3744
    53.6041     3971
    53.6698     3269
    53.7354     3551
    53.8011     2979
    53.8667     2640
    53.9324     2643
    53.9980     2680
    54.0637     2586
    54.1293     2536
    54.1950     2557
    54.2607     2555
    54.3263     2567
    54.3920     2571
    54.4576     2847
    54.5233     3043
    54.5889     2709
    54.6546     2707
    54.7202     2666
    54.7859     2553
    54.8515     2538
    54.9172     2448
    54.9828     2564
    55.0485     2579
    55.1141     2498
    55.1798     2644
    55.2454     2561
    55.3111     2697
    55.3767     2897
    55.4424     2961
    55.5080     3404
    55.5737     5677
    55.6393    11644
    55.7050     5829
    55.7706     7419
    55.8363     4838
    55.9019     3390
    55.9676     3642
    56.0332     3156
    56.0989     3134
    56.1645     3177
    56.2302     3156
    56.2958     4468
    56.3615    10615
    56.4271     7139
    56.4928     8811
    56.5584     7973
    56.6241     6039
    56.6898     5005
    56.7554     3836
    56.8211     3307
    56.8867     2883
    56.9524     2852
    57.0180     2875
    57.0837     3137
    57.1493     3593
    57.2150     6320
    57.2806     9804
    57.3463     8652
    57.4119     7824
    57.4776     9766
    57.5432     4860
    57.6089     4725
    57.6745     3747
    57.7402     3050
    57.8058     3020
    57.8715     3361
    57.9371     5104
    58.0028     7908
    58.0684     4470
    58.1341     6256
    58.1997     4332
    58.2654     3770
    58.3310     3785
    58.3967     3092
    58.4623     3290
    58.5280     2971
    58.5936     2999
    58.6593     3644
    58.7249     5620
    58.7906     8303
    58.8562     5641
    58.9219     8772
    58.9876     9781
    59.0532     4899
    59.1189     6460
    59.1845     4703
    59.2502     6537
    59.3158     9212
    59.3815     4854
    59.4471     6024
    59.5128     4623
    59.5784     3285
    59.6441     3259
    59.7097     3773
    59.7754     7030
    59.8410    10942
    59.9067     8345
    59.9723    14007
    60.0380     7342
    60.1036     6887
    60.1693     5114
    60.2349     3213
    60.3006     2877
    60.3662     2714
    60.4319     2731
    60.4975     2713
    60.5632     2868
    60.6288     3061
    60.6945     3373
    60.7601     5426
    60.8258     9903
    60.8914     7258
    60.9571    10795
    61.0227     7357
    61.0884     6716
    61.1540     6930
    61.2197     5305
    61.2854     5540
    61.3510     5053
    61.4167     3807
    61.4823     3754
    61.5480     2892
    61.6136     2645
    61.6793     2582
    61.7449     2640
    61.8106     2548
    61.8762     2481
    61.9419     2496
    62.0075     2527
    62.0732     2513
    62.1388     2474
    62.2045     2421
    62.2701     2496
    62.3358     2463
    62.4014     2531
    62.4671     2613
    62.5327     2476
    62.5984     2440
    62.6640     2430
    62.7297     2386
    62.7953     2402
    62.8610     2386
    62.9266     2380
    62.9923     2319
    63.0579     2420
    63.1236     2370
    63.1892     2401
    63.2549     2368
    63.3205     2427
    63.3862     2427
    63.4518     2484
    63.5175     2469
    63.5831     2453
    63.6488     2688
    63.7145     3150
    63.7801     4166
    63.8458     3204
    63.9114     3027
    63.9771     3361
    64.0427     2770
    64.1084     2527
    64.1740     2604
    64.2397     3661
    64.3053     5597
    64.3710     4176
    64.4366     3671
    64.5023     4142
    64.5679     2850
    64.6336     2569
    64.6992     2281
    64.7649     2456
    64.8305     2325
    64.8962     2372
    64.9618     2469
    65.0275     2436
    65.0931     2446
    65.1588     2556
    65.2244     2588
    65.2901     2638
    65.3557     2672
    65.4214     2426
    65.4870     2482
    65.5527     2443
    65.6183     2409
    65.6840     2278
    65.7496     2398
    65.8153     2488
    65.8810     2418
    65.9466     2410
    66.0123     2315
    66.0779     2399
    66.1436     2333
    66.2092     2318
    66.2749     2329
    66.3405     2250
    66.4062     2307
    66.4718     2204
    66.5375     2322
    66.6031     2524
    66.6688     2440
    66.7344     2305
    66.8001     2592
    66.8657     2397
    66.9314     2293
    66.9970     2438
    67.0627     2366
    67.1283     2363
    67.1940     2281
    67.2596     2246
    67.3253     2373
    67.3909     2230
    67.4566     2265
    67.5222     2283
    67.5879     2232
    67.6535     2413
    67.7192     2197
    67.7848     2425
    67.8505     2362
    67.9161     2281
    67.9818     2511
    68.0474     3238
    68.1131     3024
    68.1787     2582
    68.2444     2881
    68.3101     2707
    68.3757     2543
    68.4414     2786
    68.5070     2635
    68.5727     2684
    68.6383     2745
    68.7040     2515
    68.7696     2715
    68.8353     2966
    68.9009     5409
    68.9666     3384
    69.0322     2857
    69.0979     3876
    69.1635     3008
    69.2292     2688
    69.2948     3614
    69.3605     3231
    69.4261     2761
    69.4918     3105
    69.5574     2946
    69.6231     3032
    69.6887     3733
    69.7544     3664
    69.8200     3266
    69.8857     4054
    69.9513     6598
    70.0170     5749
    70.0826     4129
    70.1483     4676
    70.2139     4884
    70.2796     4721
    70.3452     3427
    70.4109     3702
    70.4765     5244
    70.5422     4985
    70.6078     3349
    70.6735     3609
    70.7392     4014
    70.8048     2981
    70.8705     3009
    70.9361     2866
    71.0018     2767
    71.0674     2964
    71.1331     3667
    71.1987     4176
    71.2644     3986
    71.3300     5159
    71.3957     4774
    71.4613     3516
    71.5270     3631
    71.5926     3481
    71.6583     2857
    71.7239     3805
    71.7896     3558
    71.8552     2714
    71.9209     3135
    71.9865     3257
    72.0522     3153
    72.1178     3368
    72.1835     3346
    72.2491     2795
    72.3148     2934
    72.3804     2913
    72.4461     2487
    72.5117     2406
    72.5774     2564
    72.6430     2390
    72.7087     2632
    72.7743     2873
    72.8400     3930
    72.9057     3607
    72.9713     2842
    73.0370     3225
    73.1026     3158
    73.1683     2726
    73.2339     2805
    73.2996     3808
    73.3652     3987
    73.4309     3082
    73.4965     3398
    73.5622     3546
    73.6278     3171
    73.6935     3688
    73.7591     4391
    73.8248     3178
    73.8904     3037
    73.9561     3368
    74.0217     2879
    74.0874     2666
    74.1530     2876
    74.2187     4544
    74.2843     4840
    74.3500     5192
    74.4156     3881
    74.4813     3906
    74.5469     3751
    74.6126     3187
    74.6782     2470
    74.7439     2406
    74.8095     2327
    74.8752     2313
    74.9408     2493
    75.0065     2327
    75.0722     2327
    75.1378     2357
    75.2035     2346
    75.2691     2378
    75.3348     2279
    75.4004     2270
    75.4661     2417
    75.5317     2333
    75.5974     2352
    75.6630     2301
    75.7287     2375
    75.7943     2500
    75.8600     2456
    75.9256     2383
    75.9913     2500
    76.0569     2389
    76.1226     2565
    76.1882     2739
    76.2539     2849
    76.3195     2727
    76.3852     3112
    76.4508     3911
    76.5165     4793
    76.5821     3490
    76.6478     3140
    76.7134     3518
    76.7791     3210
    76.8447     2639
    76.9104     2485
    76.9760     2524
    77.0417     2467
    77.1073     2555
    77.1730     2960
    77.2386     3985
    77.3043     4465
    77.3699     3394
    77.4356     3225
    77.5013     3497
    77.5669     3328
    77.6326     2929
    77.6982     3017
    77.7639     2615
    77.8295     2465
    77.8952     2751
    77.9608     2634
    78.0265     2734
    78.0921     2872
    78.1578     2622
    78.2234     2486
    78.2891     2639
    78.3547     2598
    78.4204     2632
    78.4860     3272
    78.5517     3463
    78.6173     3472
    78.6830     2894
    78.7486     3135
    78.8143     3404
    78.8799     3501
    78.9456     3119
    79.0112     3381
    79.0769     4092
    79.1425     3748
    79.2082     3933
    79.2738     4029
    79.3395     3636
    79.4051     3195
    79.4708     3265
    79.5364     3563
    79.6021     4373
    79.6677     3366
    79.7334     2985
    79.7990     2953
    79.8647     3435
    79.9304     3163
    79.9960     2958
    80.0617     2727
    80.1273     2769
    80.1930     2869
    80.2586     3144
    80.3243     4150
    80.3899     6535
    80.4556     5837
    80.5212     5170
    80.5869     4568
    80.6525     5433
    80.7182     5750
    80.7838     4941
    80.8495     4106
    80.9151     3465
    80.9808     3428
    81.0464     3428
    81.1121     3250
    81.1777     3394
    81.2434     3550
    81.3090     3493
    81.3747     3552
    81.4403     3378
    81.5060     2987
    81.5716     2915
    81.6373     2739
    81.7029     2587
    81.7686     2423
    81.8342     2402
    81.8999     2439
    81.9655     2444
    82.0312     2543
    82.0968     2544
    82.1625     2930
    82.2281     3432
    82.2938     3921
    82.3595     4094
    82.4251     3385
    82.4908     3072
    82.5564     3368
    82.6221     4120
    82.6877     3520
    82.7534     2708
    82.8190     2608
    82.8847     2908
    82.9503     2777
    83.0160     2584
    83.0816     2414
    83.1473     2348
    83.2129     2402
    83.2786     2297
    83.3442     2357
    83.4099     2444
    83.4755     2458
    83.5412     2514
    83.6068     2671
    83.6725     2599
    83.7381     2722
    83.8038     2824
    83.8694     3174
    83.9351     3229
    84.0007     2666
    84.0664     2527
    84.1320     2784
    84.1977     2655
    84.2633     2523
    84.3290     2402
    84.3946     2314
    84.4603     2390
    84.5260     2488
    84.5916     2409
    84.6573     2411
    84.7229     2400
    84.7886     2373
    84.8542     2430
    84.9199     2415
    84.9855     2366
    85.0512     2312
    85.1168     2345
    85.1825     2282
    85.2481     2389
    85.3138     2422
    85.3794     2496
    85.4451     2777
    85.5107     2787
    85.5764     2918
    85.6420     2782
    85.7077     3182
    85.7733     3998
    85.8390     3927
    85.9046     3306
    85.9703     3319
    86.0359     3550
    86.1016     3344
    86.1672     2912
    86.2329     2749
    86.2985     2622
    86.3642     2523
    86.4298     2453
    86.4955     2360
    86.5611     2439
    86.6268     2577
    86.6925     3029
    86.7581     2857
    86.8238     2589
    86.8894     2549
    86.9551     2703
    87.0207     2805
    87.0864     2856
    87.1520     3355
    87.2177     3056
    87.2833     2816
    87.3490     3171
    87.4146     2980
    87.4803     2755
    87.5459     2554
    87.6116     2815
    87.6772     2613
    87.7429     2771
    87.8085     3260
    87.8742     3186
    87.9398     2907
    88.0055     3193
    88.0711     3985
    88.1368     3272
    88.2024     3072
    88.2681     3025
    88.3337     3153
    88.3994     2832
    88.4650     2865
    88.5307     2813
    88.5963     2727
    88.6620     3202
    88.7276     3846
    88.7933     3383
    88.8589     2751
    88.9246     2664
    88.9902     3037
    89.0559     2937
    89.1216     2718
    89.1872     2927
    89.2529     3234
    89.3185     2779
    89.3842     2548
    89.4498     2636
    89.5155     2852
    89.5811     2783
    89.6468     2513
    89.7124     2391
    89.7781     2515
    89.8437     3127
    89.9094     3395
    89.9750     2999
    90.0407     2974
    90.1063     2806
    90.1720     2994
    90.2376     2811
    90.3033     2852
    90.3689     3089
    90.4346     3171
    90.5002     3013
    90.5659     2904
    90.6315     2975
    90.6972     3150
    90.7628     3114
    90.8285     3001
    90.8941     2767
    90.9598     2704
    91.0254     2901
    91.0911     3394
    91.1567     3246
    91.2224     2716
    91.2880     2786
    91.3537     3363
    91.4193     4091
    91.4850     4319
    91.5507     3261
    91.6163     3001
    91.6820     3154
    91.7476     3545
    91.8133     3836
    91.8789     3815
    91.9446     2948
    92.0102     2689
    92.0759     2941
    92.1415     3253
    92.2072     3140
    92.2728     2885
    92.3385     2757
    92.4041     2571
    92.4698     2642
    92.5354     2544
    92.6011     2642
    92.6667     2724
    92.7324     2678
    92.7980     2688
    92.8637     2724
    92.9293     2936
    92.9950     3136
    93.0606     3498
    93.1263     3517
    93.1919     2924
    93.2576     2746
    93.3232     2865
    93.3889     3049
    93.4545     2820
    93.5202     2524
    93.5858     2493
    93.6515     2370
    93.7171     2366
    93.7828     2249
    93.8484     2382
    93.9141     2301
    93.9798     2205
    94.0454     2339
    94.1111     2318
    94.1767     2274
    94.2424     2390
    94.3080     2696
    94.3737     3141
    94.4393     2918
    94.5050     2831
    94.5706     2724
    94.6363     2857
    94.7019     2942
    94.7676     2730
    94.8332     2778
    94.8989     2954
    94.9645     3341
    95.0302     2934
    95.0958     3040
    95.1615     2936
    95.2271     2843
    95.2928     2764
    95.3584     2596
    95.4241     2618
    95.4897     2528
    95.5554     2431
    95.6210     2304
    95.6867     2322
    95.7523     2237
    95.8180     2305
    95.8836     2285
    95.9493     2291
    96.0149     2241
    96.0806     2233
    96.1463     2327
    96.2119     2240
    96.2776     2320
    96.3432     2332
    96.4089     2352
    96.4745     2401
    96.5402     2414
    96.6058     2484
    96.6715     2495
    96.7371     2431
    96.8028     2428
    96.8684     2585
    96.9341     2780
    96.9997     2922
    97.0654     2951
    97.1310     3111
    97.1967     3483
    97.2623     2908
    97.3280     3041
    97.3936     2975
    97.4593     3521
    97.5249     3413
    97.5906     3022
    97.6562     3145
    97.7219     3112
    97.7875     2994
    97.8532     2988
    97.9188     3245
    97.9845     3180
    98.0501     2876
    98.1158     2683
    98.1814     2612
    98.2471     2649
    98.3128     2617
    98.3784     2466
    98.4441     2338
    98.5097     2434
    98.5754     2478
    98.6410     2392
    98.7067     2596
    98.7723     2891
    98.8380     3454
    98.9036     3371
    98.9693     3319
    99.0349     3528
    99.1006     4372
    99.1662     4898
    99.2319     4502
    99.2975     3464
    99.3632     3116
    99.4288     3324
    99.4945     3613
    99.5601     3641
    99.6258     3424
    99.6914     3509
    99.7571     3626
    99.8227     3573
    99.8884     3326
    99.9540     2973
    99.9934     3024