File: powder_X-ray_diffraction/variable-temperature_experiments/NaTaO2F2/raw_data/80°C.XY
! Initial file:   D:\ZAKARY_OUAIL\MA_THESE\Deuxième_année_de_thèse\DRX\Manips_DRX\1st_NaTaO2F2_XRK900\NaTaO2F2-Lent_80°C.xrdml
! Initial format:  58
! WAVE (A):      1.54060     1.54060     1.00000
! REM : data have been multiplied by     1.0000
! X_data : 2 Theta (deg.)
! Y_data : Intensity (arb. units)
!     X         Y
!--------------------------------------------------------------------------------
    10.0116     7130
    10.0772     7171
    10.1429     7212
    10.2086     7076
    10.2742     7014
    10.3399     6859
    10.4055     6929
    10.4712     6906
    10.5368     6780
    10.6025     6977
    10.6681     6909
    10.7338     6818
    10.7994     7145
    10.8651     7103
    10.9307     7509
    10.9964     9425
    11.0620    20591
    11.1277    52223
    11.1933    21133
    11.2590     7946
    11.3246     7068
    11.3903     6694
    11.4559     6608
    11.5216     6592
    11.5872     6477
    11.6529     6430
    11.7185     6579
    11.7842     6538
    11.8498     6362
    11.9155     6327
    11.9811     6254
    12.0468     6163
    12.1124     6140
    12.1781     6115
    12.2437     6216
    12.3094     6168
    12.3750     6189
    12.4407     6145
    12.5063     6080
    12.5720     6110
    12.6377     6041
    12.7033     5877
    12.7690     6098
    12.8346     6019
    12.9003     5999
    12.9659     6020
    13.0316     5856
    13.0972     5868
    13.1629     5929
    13.2285     5722
    13.2942     5880
    13.3598     5844
    13.4255     5711
    13.4911     5818
    13.5568     5713
    13.6224     5579
    13.6881     5584
    13.7537     5684
    13.8194     5594
    13.8850     5685
    13.9507     5573
    14.0163     5620
    14.0820     5621
    14.1476     5530
    14.2133     5495
    14.2789     5446
    14.3446     5375
    14.4102     5265
    14.4759     5442
    14.5415     5384
    14.6072     5300
    14.6728     5557
    14.7385     5377
    14.8041     5367
    14.8698     5380
    14.9355     5252
    15.0011     5266
    15.0668     5418
    15.1324     5153
    15.1981     5238
    15.2637     5207
    15.3294     5152
    15.3950     5245
    15.4607     5148
    15.5263     5227
    15.5920     5142
    15.6576     5222
    15.7233     5049
    15.7889     5127
    15.8546     5053
    15.9202     5163
    15.9859     5224
    16.0515     5092
    16.1172     5039
    16.1828     5136
    16.2485     5354
    16.3141     5118
    16.3798     5296
    16.4454     5378
    16.5111     5137
    16.5767     4943
    16.6424     4894
    16.7080     4953
    16.7737     4826
    16.8393     4911
    16.9050     4882
    16.9706     4917
    17.0363     4831
    17.1019     4902
    17.1676     4820
    17.2333     4855
    17.2989     5117
    17.3646     4888
    17.4302     4790
    17.4959     4671
    17.5615     4663
    17.6272     4744
    17.6928     4767
    17.7585     4785
    17.8241     5088
    17.8898     4785
    17.9554     4699
    18.0211     4551
    18.0867     4550
    18.1524     4760
    18.2180     4487
    18.2837     4526
    18.3493     4560
    18.4150     4521
    18.4806     4424
    18.5463     4501
    18.6119     4572
    18.6776     4626
    18.7432     4371
    18.8089     4352
    18.8745     4510
    18.9402     4389
    19.0058     4412
    19.0715     4747
    19.1371     4774
    19.2028     4818
    19.2684     4807
    19.3341     4765
    19.3997     4962
    19.4654     5342
    19.5311     5982
    19.5967     8842
    19.6624    33226
    19.7280   119613
    19.7937    59170
    19.8593    11303
    19.9250     6106
    19.9906     5063
    20.0563     4854
    20.1219     4690
    20.1876     4940
    20.2532     4677
    20.3189     4533
    20.3845     4405
    20.4502     4310
    20.5158     4337
    20.5815     4358
    20.6471     4391
    20.7128     4135
    20.7784     4034
    20.8441     4242
    20.9097     4206
    20.9754     4143
    21.0410     4169
    21.1067     4150
    21.1723     4142
    21.2380     4173
    21.3036     4044
    21.3693     4189
    21.4349     4090
    21.5006     4036
    21.5662     4046
    21.6319     4177
    21.6975     4093
    21.7632     4082
    21.8288     4250
    21.8945     4445
    21.9602     4177
    22.0258     4195
    22.0915     4033
    22.1571     4141
    22.2228     4258
    22.2884     5028
    22.3541    13044
    22.4197    17689
    22.4854     7650
    22.5510     4447
    22.6167     4059
    22.6823     3974
    22.7480     4060
    22.8136     4096
    22.8793     4022
    22.9449     3962
    23.0106     3803
    23.0762     3688
    23.1419     3852
    23.2075     3803
    23.2732     3789
    23.3388     3936
    23.4045     3925
    23.4701     4060
    23.5358     3995
    23.6014     4010
    23.6671     3962
    23.7327     4063
    23.7984     4026
    23.8640     4080
    23.9297     4175
    23.9953     4645
    24.0610     4920
    24.1266     7368
    24.1923    32537
    24.2580    36079
    24.3236    15321
    24.3893    19938
    24.4549    47787
    24.5206    25871
    24.5862     6819
    24.6519     4490
    24.7175     4031
    24.7832     3841
    24.8488     3915
    24.9145     3860
    24.9801     3758
    25.0458     4163
    25.1114     3855
    25.1771     3755
    25.2427     3665
    25.3084     3716
    25.3740     3674
    25.4397     3787
    25.5053     3685
    25.5710     3689
    25.6366     3667
    25.7023     3554
    25.7679     3582
    25.8336     3536
    25.8992     3514
    25.9649     3642
    26.0305     3794
    26.0962     4044
    26.1618     3917
    26.2275     3675
    26.2931     3508
    26.3588     3563
    26.4244     3645
    26.4901     3507
    26.5558     3483
    26.6214     3544
    26.6871     3492
    26.7527     3594
    26.8184     3672
    26.8840     3623
    26.9497     3728
    27.0153     3679
    27.0810     3622
    27.1466     3668
    27.2123     3699
    27.2779     3590
    27.3436     3721
    27.4092     3907
    27.4749     4042
    27.5405     4509
    27.6062     5502
    27.6718     8396
    27.7375    35110
    27.8031    75392
    27.8688    42661
    27.9344     9901
    28.0001     5225
    28.0657     4243
    28.1314     3926
    28.1970     3813
    28.2627     3683
    28.3283     3847
    28.3940     3916
    28.4596     3737
    28.5253     3592
    28.5909     3649
    28.6566     3578
    28.7222     3503
    28.7879     3628
    28.8536     3423
    28.9192     3531
    28.9849     3583
    29.0505     3850
    29.1162     4095
    29.1818     4764
    29.2475    10695
    29.3131    34805
    29.3788    23000
    29.4444    13082
    29.5101    18485
    29.5757    11482
    29.6414     4763
    29.7070     3728
    29.7727     3589
    29.8383     3450
    29.9040     3508
    29.9696     3402
    30.0353     3521
    30.1009     3268
    30.1666     3390
    30.2322     3322
    30.2979     3204
    30.3635     3227
    30.4292     3405
    30.4948     3369
    30.5605     3387
    30.6261     3145
    30.6918     3205
    30.7574     3232
    30.8231     3091
    30.8887     3203
    30.9544     3142
    31.0200     3245
    31.0857     3130
    31.1514     3197
    31.2170     3209
    31.2827     3198
    31.3483     3215
    31.4140     3079
    31.4796     3169
    31.5453     3139
    31.6109     3078
    31.6766     3174
    31.7422     3194
    31.8079     3130
    31.8735     3102
    31.9392     3172
    32.0048     3168
    32.0705     3133
    32.1361     3145
    32.2018     3243
    32.2674     3278
    32.3331     3237
    32.3987     3106
    32.4644     3174
    32.5300     3248
    32.5957     3341
    32.6613     3706
    32.7270     4233
    32.7926    15914
    32.8583    13438
    32.9239    10380
    32.9896     4241
    33.0552     3921
    33.1209     4266
    33.1865     5061
    33.2522    18163
    33.3178    29008
    33.3835    20720
    33.4492     6418
    33.5148     4186
    33.5805     4079
    33.6461     4580
    33.7118     7387
    33.7774    24901
    33.8431    28574
    33.9087    23088
    33.9744    11354
    34.0400     4524
    34.1057     3627
    34.1713     3275
    34.2370     3141
    34.3026     3234
    34.3683     3177
    34.4339     3259
    34.4996     3193
    34.5652     3299
    34.6309     3463
    34.6965     4720
    34.7622    14344
    34.8278     8657
    34.8935     5668
    34.9591     3344
    35.0248     3221
    35.0904     3904
    35.1561     3539
    35.2217     3089
    35.2874     3050
    35.3530     3085
    35.4187     2874
    35.4843     2984
    35.5500     2891
    35.6156     2978
    35.6813     2920
    35.7470     2875
    35.8126     2908
    35.8783     2839
    35.9439     2876
    36.0096     2967
    36.0752     2972
    36.1409     3046
    36.2065     3033
    36.2722     2864
    36.3378     2936
    36.4035     2858
    36.4691     2982
    36.5348     3167
    36.6004     3421
    36.6661     8545
    36.7317     6428
    36.7974     6272
    36.8630     3176
    36.9287     3092
    36.9943     2924
    37.0600     3038
    37.1256     3011
    37.1913     3092
    37.2569     3175
    37.3226     3216
    37.3882     4873
    37.4539    10022
    37.5195     7054
    37.5852     5397
    37.6508     3197
    37.7165     3601
    37.7821     3420
    37.8478     3245
    37.9134     2922
    37.9791     2796
    38.0448     2715
    38.1104     2747
    38.1761     2801
    38.2417     2842
    38.3074     2767
    38.3730     2706
    38.4387     2709
    38.5043     2785
    38.5700     2732
    38.6356     2758
    38.7013     2776
    38.7669     2734
    38.8326     2634
    38.8982     2672
    38.9639     2826
    39.0295     2828
    39.0952     2748
    39.1608     2779
    39.2265     2692
    39.2921     2705
    39.3578     2662
    39.4234     2701
    39.4891     2795
    39.5547     2789
    39.6204     2890
    39.6860     3175
    39.7517     5114
    39.8173     4121
    39.8830     3995
    39.9486     3151
    40.0143     3349
    40.0799     6152
    40.1456     5940
    40.2112     5528
    40.2769     4125
    40.3425     8407
    40.4082     6244
    40.4739     6288
    40.5395     3581
    40.6052     2889
    40.6708     2818
    40.7365     2945
    40.8021     2853
    40.8678     3004
    40.9334     3247
    40.9991     4418
    41.0647    10350
    41.1304     8006
    41.1960    13932
    41.2617     9684
    41.3273    13388
    41.3930    11091
    41.4586     7853
    41.5243     4541
    41.5899     3012
    41.6556     2821
    41.7212     2752
    41.7869     2648
    41.8525     2770
    41.9182     2804
    41.9838     2605
    42.0495     2625
    42.1151     2634
    42.1808     2655
    42.2464     2693
    42.3121     2549
    42.3777     2715
    42.4434     2632
    42.5090     2773
    42.5747     2536
    42.6404     2620
    42.7060     2652
    42.7717     2731
    42.8373     2679
    42.9030     2627
    42.9686     2682
    43.0343     2638
    43.0999     2643
    43.1656     2591
    43.2312     2626
    43.2969     2693
    43.3625     2720
    43.4282     2838
    43.4938     3427
    43.5595     3043
    43.6251     3077
    43.6908     2608
    43.7564     2709
    43.8221     2574
    43.8877     2680
    43.9534     2580
    44.0190     2650
    44.0847     2616
    44.1503     2788
    44.2160     3122
    44.2816     3833
    44.3473     3087
    44.4129     3040
    44.4786     2738
    44.5442     2928
    44.6099     3548
    44.6755     5929
    44.7412     4131
    44.8068     4129
    44.8725     3005
    44.9381     2774
    45.0038     2647
    45.0695     2622
    45.1351     2572
    45.2008     2527
    45.2664     2638
    45.3321     2651
    45.3977     2665
    45.4634     2795
    45.5290     2850
    45.5947     3035
    45.6603     3783
    45.7260    12334
    45.7916     5334
    45.8573     7503
    45.9229     3376
    45.9886     2756
    46.0542     2767
    46.1199     2798
    46.1855     2806
    46.2512     2916
    46.3168     5096
    46.3825     5501
    46.4481     4491
    46.5138     3763
    46.5794     2806
    46.6451     2765
    46.7107     2747
    46.7764     2691
    46.8420     2529
    46.9077     2668
    46.9733     2750
    47.0390     2768
    47.1046     2981
    47.1703     3892
    47.2359     8001
    47.3016     5796
    47.3673     5840
    47.4329     3817
    47.4986     3014
    47.5642     3016
    47.6299     3299
    47.6955     3385
    47.7612     3952
    47.8268     6415
    47.8925    18721
    47.9581    10755
    48.0238    11968
    48.0894     6114
    48.1551     3775
    48.2207     3258
    48.2864     3322
    48.3520     3781
    48.4177     9334
    48.4833    12610
    48.5490     9812
    48.6146     8076
    48.6803     4903
    48.7459     4011
    48.8116     8366
    48.8772    10137
    48.9429     6573
    49.0085     6364
    49.0742     3454
    49.1398     2967
    49.2055     2817
    49.2711     2825
    49.3368     2876
    49.4024     3046
    49.4681     3363
    49.5337     3244
    49.5994     3200
    49.6651     3310
    49.7307     3139
    49.7964     3329
    49.8620     3246
    49.9277     3920
    49.9933     7514
    50.0590    19029
    50.1246     9854
    50.1903    12879
    50.2559     5859
    50.3216     4342
    50.3872     3284
    50.4529     3231
    50.5185     3456
    50.5842     4971
    50.6498    10528
    50.7155     7148
    50.7811     6849
    50.8468     4903
    50.9124     3131
    50.9781     2874
    51.0437     2709
    51.1094     2710
    51.1750     2724
    51.2407     2788
    51.3063     2766
    51.3720     2979
    51.4376     3185
    51.5033     4502
    51.5689     9092
    51.6346     4184
    51.7002     6040
    51.7659     3872
    51.8315     3362
    51.8972     2960
    51.9628     3142
    52.0285     2726
    52.0942     2670
    52.1598     2694
    52.2255     2696
    52.2911     2840
    52.3568     2797
    52.4224     3026
    52.4881     3381
    52.5537     7200
    52.6194    10864
    52.6850     5782
    52.7507     6878
    52.8163     3895
    52.8820     2993
    52.9476     3128
    53.0133     4494
    53.0789     5587
    53.1446     4404
    53.2102     4219
    53.2759     3434
    53.3415     2912
    53.4072     2746
    53.4728     2727
    53.5385     3840
    53.6041     3875
    53.6698     3273
    53.7354     3592
    53.8011     2883
    53.8667     2655
    53.9324     2727
    53.9980     2700
    54.0637     2605
    54.1293     2575
    54.1950     2549
    54.2607     2507
    54.3263     2634
    54.3920     2596
    54.4576     2895
    54.5233     2954
    54.5889     2744
    54.6546     2791
    54.7202     2620
    54.7859     2599
    54.8515     2595
    54.9172     2515
    54.9828     2622
    55.0485     2516
    55.1141     2626
    55.1798     2627
    55.2454     2707
    55.3111     2766
    55.3767     2877
    55.4424     3135
    55.5080     4297
    55.5737     9814
    55.6393     8374
    55.7050     5988
    55.7706     6917
    55.8363     3787
    55.9019     3556
    55.9676     3483
    56.0332     3035
    56.0989     3168
    56.1645     2897
    56.2302     3333
    56.2958     5080
    56.3615    11292
    56.4271     7115
    56.4928     9583
    56.5584     7388
    56.6241     6175
    56.6898     3904
    56.7554     3901
    56.8211     3070
    56.8867     2863
    56.9524     2984
    57.0180     2957
    57.0837     3280
    57.1493     4413
    57.2150     8197
    57.2806     9916
    57.3463     7207
    57.4119     8746
    57.4776     7527
    57.5432     4296
    57.6089     4700
    57.6745     3458
    57.7402     3062
    57.8058     3086
    57.8715     3635
    57.9371     6455
    58.0028     6700
    58.0684     4622
    58.1341     6801
    58.1997     3928
    58.2654     3939
    58.3310     3337
    58.3967     3167
    58.4623     3122
    58.5280     3100
    58.5936     3330
    58.6593     4377
    58.7249     7639
    58.7906     6690
    58.8562     6255
    58.9219    11409
    58.9876     6074
    59.0532     5388
    59.1189     5855
    59.1845     5263
    59.2502     9232
    59.3158     5889
    59.3815     5224
    59.4471     5701
    59.5128     3382
    59.5784     3177
    59.6441     3252
    59.7097     4455
    59.7754     8623
    59.8410     9796
    59.9067     8791
    59.9723    13349
    60.0380     6042
    60.1036     6933
    60.1693     4448
    60.2349     3171
    60.3006     2963
    60.3662     2744
    60.4319     2752
    60.4975     2886
    60.5632     2817
    60.6288     3091
    60.6945     3776
    60.7601     7338
    60.8258     9149
    60.8914     8835
    60.9571    10173
    61.0227     6358
    61.0884     7406
    61.1540     5825
    61.2197     5185
    61.2854     5745
    61.3510     4098
    61.4167     3792
    61.4823     3550
    61.5480     2738
    61.6136     2579
    61.6793     2644
    61.7449     2504
    61.8106     2474
    61.8762     2494
    61.9419     2488
    62.0075     2411
    62.0732     2456
    62.1388     2332
    62.2045     2425
    62.2701     2403
    62.3358     2516
    62.4014     2590
    62.4671     2603
    62.5327     2474
    62.5984     2496
    62.6640     2381
    62.7297     2406
    62.7953     2443
    62.8610     2420
    62.9266     2513
    62.9923     2380
    63.0579     2404
    63.1236     2432
    63.1892     2376
    63.2549     2465
    63.3205     2320
    63.3862     2432
    63.4518     2424
    63.5175     2481
    63.5831     2646
    63.6488     2874
    63.7145     3559
    63.7801     3876
    63.8458     2928
    63.9114     3355
    63.9771     2971
    64.0427     2772
    64.1084     2683
    64.1740     2967
    64.2397     4556
    64.3053     5327
    64.3710     3594
    64.4366     3942
    64.5023     3573
    64.5679     2611
    64.6336     2456
    64.6992     2413
    64.7649     2361
    64.8305     2359
    64.8962     2407
    64.9618     2415
    65.0275     2430
    65.0931     2678
    65.1588     2600
    65.2244     2687
    65.2901     2680
    65.3557     2518
    65.4214     2446
    65.4870     2476
    65.5527     2442
    65.6183     2270
    65.6840     2338
    65.7496     2378
    65.8153     2334
    65.8810     2455
    65.9466     2328
    66.0123     2285
    66.0779     2383
    66.1436     2300
    66.2092     2335
    66.2749     2356
    66.3405     2287
    66.4062     2256
    66.4718     2312
    66.5375     2415
    66.6031     2479
    66.6688     2348
    66.7344     2523
    66.8001     2498
    66.8657     2368
    66.9314     2439
    66.9970     2418
    67.0627     2334
    67.1283     2255
    67.1940     2372
    67.2596     2243
    67.3253     2311
    67.3909     2370
    67.4566     2347
    67.5222     2332
    67.5879     2265
    67.6535     2326
    67.7192     2369
    67.7848     2465
    67.8505     2427
    67.9161     2418
    67.9818     2598
    68.0474     3448
    68.1131     2994
    68.1787     2565
    68.2444     2984
    68.3101     2768
    68.3757     2735
    68.4414     2791
    68.5070     2605
    68.5727     2755
    68.6383     2578
    68.7040     2675
    68.7696     2849
    68.8353     4885
    68.9009     3843
    68.9666     2874
    69.0322     3749
    69.0979     3120
    69.1635     2591
    69.2292     2747
    69.2948     3944
    69.3605     3000
    69.4261     2716
    69.4918     3274
    69.5574     3150
    69.6231     3755
    69.6887     3701
    69.7544     3111
    69.8200     3577
    69.8857     4486
    69.9513     7077
    70.0170     5068
    70.0826     3769
    70.1483     5153
    70.2139     5368
    70.2796     3765
    70.3452     3458
    70.4109     4038
    70.4765     4936
    70.5422     4439
    70.6078     3397
    70.6735     3841
    70.7392     3881
    70.8048     3035
    70.8705     2805
    70.9361     2811
    71.0018     2805
    71.0674     3465
    71.1331     4143
    71.1987     4082
    71.2644     3893
    71.3300     6136
    71.3957     3951
    71.4613     3239
    71.5270     3941
    71.5926     3091
    71.6583     2930
    71.7239     4047
    71.7896     3139
    71.8552     2917
    71.9209     3338
    71.9865     3318
    72.0522     3391
    72.1178     3600
    72.1835     3081
    72.2491     2860
    72.3148     2922
    72.3804     2743
    72.4461     2482
    72.5117     2479
    72.5774     2470
    72.6430     2533
    72.7087     2725
    72.7743     3553
    72.8400     3932
    72.9057     2952
    72.9713     2963
    73.0370     3333
    73.1026     2761
    73.1683     2746
    73.2339     3402
    73.2996     4287
    73.3652     3324
    73.4309     3349
    73.4965     3485
    73.5622     3239
    73.6278     3589
    73.6935     4187
    73.7591     3595
    73.8248     2962
    73.8904     3297
    73.9561     3273
    74.0217     2728
    74.0874     2809
    74.1530     4222
    74.2187     5153
    74.2843     5301
    74.3500     4010
    74.4156     4080
    74.4813     3713
    74.5469     3308
    74.6126     2528
    74.6782     2458
    74.7439     2324
    74.8095     2280
    74.8752     2280
    74.9408     2394
    75.0065     2408
    75.0722     2296
    75.1378     2235
    75.2035     2306
    75.2691     2375
    75.3348     2375
    75.4004     2314
    75.4661     2359
    75.5317     2308
    75.5974     2469
    75.6630     2394
    75.7287     2475
    75.7943     2492
    75.8600     2435
    75.9256     2447
    75.9913     2548
    76.0569     2574
    76.1226     2681
    76.1882     2848
    76.2539     2832
    76.3195     2785
    76.3852     3508
    76.4508     4688
    76.5165     4217
    76.5821     3058
    76.6478     3307
    76.7134     3501
    76.7791     2810
    76.8447     2457
    76.9104     2696
    76.9760     2433
    77.0417     2537
    77.1073     2929
    77.1730     3906
    77.2386     4489
    77.3043     3752
    77.3699     3222
    77.4356     3527
    77.5013     3428
    77.5669     2900
    77.6326     2913
    77.6982     2826
    77.7639     2625
    77.8295     2560
    77.8952     2702
    77.9608     2666
    78.0265     2840
    78.0921     2980
    78.1578     2520
    78.2234     2506
    78.2891     2734
    78.3547     2728
    78.4204     2900
    78.4860     3357
    78.5517     3472
    78.6173     3092
    78.6830     3003
    78.7486     3274
    78.8143     3632
    78.8799     3295
    78.9456     3211
    79.0112     3957
    79.0769     3894
    79.1425     3869
    79.2082     4014
    79.2738     3585
    79.3395     3174
    79.4051     3143
    79.4708     3310
    79.5364     3682
    79.6021     3982
    79.6677     3019
    79.7334     2890
    79.7990     3376
    79.8647     3323
    79.9304     2981
    79.9960     2692
    80.0617     2826
    80.1273     2864
    80.1930     3052
    80.2586     3473
    80.3243     4969
    80.3899     6598
    80.4556     5729
    80.5212     4640
    80.5869     4912
    80.6525     5959
    80.7182     5113
    80.7838     4642
    80.8495     3720
    80.9151     3583
    80.9808     3326
    81.0464     3694
    81.1121     3450
    81.1777     3495
    81.2434     3370
    81.3090     3539
    81.3747     3593
    81.4403     3051
    81.5060     2897
    81.5716     2828
    81.6373     2640
    81.7029     2446
    81.7686     2478
    81.8342     2459
    81.8999     2506
    81.9655     2480
    82.0312     2528
    82.0968     2740
    82.1625     3154
    82.2281     3849
    82.2938     4207
    82.3595     3481
    82.4251     3196
    82.4908     3276
    82.5564     3482
    82.6221     4151
    82.6877     3009
    82.7534     2634
    82.8190     2734
    82.8847     3069
    82.9503     2717
    83.0160     2478
    83.0816     2370
    83.1473     2435
    83.2129     2486
    83.2786     2420
    83.3442     2354
    83.4099     2475
    83.4755     2557
    83.5412     2638
    83.6068     2645
    83.6725     2655
    83.7381     2749
    83.8038     3002
    83.8694     3375
    83.9351     2802
    84.0007     2554
    84.0664     2614
    84.1320     2820
    84.1977     2470
    84.2633     2347
    84.3290     2346
    84.3946     2407
    84.4603     2372
    84.5260     2563
    84.5916     2410
    84.6573     2394
    84.7229     2375
    84.7886     2426
    84.8542     2413
    84.9199     2422
    84.9855     2374
    85.0512     2345
    85.1168     2371
    85.1825     2410
    85.2481     2400
    85.3138     2419
    85.3794     2650
    85.4451     2810
    85.5107     3055
    85.5764     2893
    85.6420     3023
    85.7077     3796
    85.7733     3977
    85.8390     3669
    85.9046     3278
    85.9703     3591
    86.0359     3456
    86.1016     3024
    86.1672     2723
    86.2329     2626
    86.2985     2570
    86.3642     2425
    86.4298     2399
    86.4955     2470
    86.5611     2541
    86.6268     2907
    86.6925     2936
    86.7581     2522
    86.8238     2544
    86.8894     2733
    86.9551     2781
    87.0207     2787
    87.0864     3146
    87.1520     3051
    87.2177     2794
    87.2833     2940
    87.3490     3058
    87.4146     2958
    87.4803     2573
    87.5459     2758
    87.6116     2661
    87.6772     2897
    87.7429     3262
    87.8085     3110
    87.8742     2868
    87.9398     2986
    88.0055     3786
    88.0711     3593
    88.1368     2982
    88.2024     2978
    88.2681     3146
    88.3337     3030
    88.3994     2814
    88.4650     2942
    88.5307     2981
    88.5963     3003
    88.6620     3769
    88.7276     3451
    88.7933     2757
    88.8589     2727
    88.9246     3002
    88.9902     3111
    89.0559     2616
    89.1216     2807
    89.1872     3241
    89.2529     3071
    89.3185     2690
    89.3842     2505
    89.4498     2693
    89.5155     2817
    89.5811     2606
    89.6468     2565
    89.7124     2367
    89.7781     2729
    89.8437     3456
    89.9094     3461
    89.9750     2982
    90.0407     2684
    90.1063     2864
    90.1720     3121
    90.2376     2831
    90.3033     3024
    90.3689     3301
    90.4346     3006
    90.5002     3021
    90.5659     2903
    90.6315     3104
    90.6972     3341
    90.7628     3116
    90.8285     2995
    90.8941     2663
    90.9598     2803
    91.0254     3220
    91.0911     3139
    91.1567     2582
    91.2224     2721
    91.2880     3095
    91.3537     3898
    91.4193     4193
    91.4850     3619
    91.5507     2989
    91.6163     2952
    91.6820     3490
    91.7476     3681
    91.8133     3926
    91.8789     3128
    91.9446     2773
    92.0102     2779
    92.0759     3161
    92.1415     3348
    92.2072     2889
    92.2728     2751
    92.3385     2633
    92.4041     2698
    92.4698     2645
    92.5354     2591
    92.6011     2812
    92.6667     2790
    92.7324     2622
    92.7980     2749
    92.8637     2851
    92.9293     3126
    92.9950     3464
    93.0606     3636
    93.1263     3012
    93.1919     2684
    93.2576     2697
    93.3232     3046
    93.3889     2790
    93.4545     2516
    93.5202     2400
    93.5858     2268
    93.6515     2324
    93.7171     2364
    93.7828     2417
    93.8484     2336
    93.9141     2415
    93.9798     2259
    94.0454     2284
    94.1111     2339
    94.1767     2452
    94.2424     2814
    94.3080     3136
    94.3737     2924
    94.4393     2774
    94.5050     2777
    94.5706     2959
    94.6363     2913
    94.7019     2748
    94.7676     2800
    94.8332     2858
    94.8989     3332
    94.9645     3192
    95.0302     3199
    95.0958     2865
    95.1615     2713
    95.2271     2776
    95.2928     2695
    95.3584     2703
    95.4241     2434
    95.4897     2450
    95.5554     2295
    95.6210     2357
    95.6867     2334
    95.7523     2354
    95.8180     2281
    95.8836     2361
    95.9493     2330
    96.0149     2309
    96.0806     2308
    96.1463     2291
    96.2119     2269
    96.2776     2424
    96.3432     2374
    96.4089     2357
    96.4745     2370
    96.5402     2450
    96.6058     2432
    96.6715     2363
    96.7371     2376
    96.8028     2510
    96.8684     2762
    96.9341     2884
    96.9997     2926
    97.0654     3336
    97.1310     3490
    97.1967     2959
    97.2623     2947
    97.3280     3215
    97.3936     3619
    97.4593     3207
    97.5249     2729
    97.5906     2824
    97.6562     3237
    97.7219     3290
    97.7875     2922
    97.8532     3148
    97.9188     3213
    97.9845     2873
    98.0501     2741
    98.1158     2708
    98.1814     2756
    98.2471     2663
    98.3128     2585
    98.3784     2431
    98.4441     2315
    98.5097     2405
    98.5754     2409
    98.6410     2567
    98.7067     2715
    98.7723     3330
    98.8380     3550
    98.9036     3383
    98.9693     3470
    99.0349     3924
    99.1006     4537
    99.1662     4662
    99.2319     4127
    99.2975     3407
    99.3632     3460
    99.4288     3549
    99.4945     3619
    99.5601     3672
    99.6258     3647
    99.6914     3509
    99.7571     3498
    99.8227     3181
    99.8884     2911
    99.9540     3137
    99.9934     3317