File: powder_X-ray_diffraction/variable-temperature_experiments/NaNbO2F2/raw_data/100°C.XY
! Initial file:   D:\ZAKARY_OUAIL\MA_THESE\Deuxième_année_de_thèse\DRX\Affinement_DRX\Fullprof\Thermodiff3-nuit_NaNbO2F2\100°C\NaNbO2F2-Lent_100°C - Copie.xrdml
! Initial format:  58
! WAVE (A):      1.54060     1.54060     1.00000
! REM : data have been multiplied by     1.0000
! X_data : 2 Theta (deg.)
! Y_data : Intensity (arb. units)
!     X         Y
!--------------------------------------------------------------------------------
    10.0116     7952
    10.0772     7897
    10.1429     8238
    10.2086     8067
    10.2742     8187
    10.3399     8007
    10.4055     8196
    10.4712     7989
    10.5368     8103
    10.6025     7965
    10.6681     8043
    10.7338     8053
    10.7994     7863
    10.8651     8285
    10.9307     8395
    10.9964     8660
    11.0620     9154
    11.1277    10941
    11.1933    20968
    11.2590    78057
    11.3246    27481
    11.3903     9213
    11.4559     8493
    11.5216     8219
    11.5872     8152
    11.6529     7911
    11.7185     8073
    11.7842     8267
    11.8498     8310
    11.9155     8283
    11.9811     8197
    12.0468     8316
    12.1124     8354
    12.1781     8384
    12.2437     8342
    12.3094     8432
    12.3750     8436
    12.4407     8418
    12.5063     8408
    12.5720     8440
    12.6377     8129
    12.7033     8203
    12.7690     8353
    12.8346     8340
    12.9003     8406
    12.9659     8288
    13.0316     8195
    13.0972     8193
    13.1629     8122
    13.2285     8220
    13.2942     8192
    13.3598     8116
    13.4255     8117
    13.4911     8154
    13.5568     8226
    13.6224     8005
    13.6881     8209
    13.7537     8251
    13.8194     8188
    13.8850     8120
    13.9507     8025
    14.0163     8159
    14.0820     7933
    14.1476     8187
    14.2133     8282
    14.2789     8196
    14.3446     7985
    14.4102     8138
    14.4759     8888
    14.5415     9536
    14.6072     8622
    14.6728     8098
    14.7385     8048
    14.8041     7785
    14.8698     7993
    14.9355     7806
    15.0011     8052
    15.0668     7767
    15.1324     7755
    15.1981     7828
    15.2637     7915
    15.3294     7686
    15.3950     8015
    15.4607     7908
    15.5263     7789
    15.5920     7734
    15.6576     7794
    15.7233     7737
    15.7889     7846
    15.8546     7635
    15.9202     7763
    15.9859     8007
    16.0515     8032
    16.1172     7910
    16.1828     7862
    16.2485     7743
    16.3141     7702
    16.3798     7888
    16.4454     7753
    16.5111     7898
    16.5767     7552
    16.6424     7668
    16.7080     7773
    16.7737     8007
    16.8393     8060
    16.9050     7733
    16.9706     7621
    17.0363     7438
    17.1019     7760
    17.1676     7668
    17.2333     7696
    17.2989     7693
    17.3646     7678
    17.4302     7462
    17.4959     7679
    17.5615     7668
    17.6272     7517
    17.6928     7515
    17.7585     7555
    17.8241     7373
    17.8898     7477
    17.9554     7710
    18.0211     7456
    18.0867     7310
    18.1524     7326
    18.2180     7386
    18.2837     7433
    18.3493     7421
    18.4150     7469
    18.4806     7298
    18.5463     7449
    18.6119     7305
    18.6776     7308
    18.7432     7295
    18.8089     7301
    18.8745     7298
    18.9402     7327
    19.0058     7213
    19.0715     7348
    19.1371     7433
    19.2028     7592
    19.2684     7723
    19.3341     7868
    19.3997     7679
    19.4654     7718
    19.5311     7810
    19.5967     8052
    19.6624     8416
    19.7280     9274
    19.7937    14955
    19.8593    60912
    19.9250    74732
    19.9906    20417
    20.0563     9504
    20.1219     8396
    20.1876     8017
    20.2532     7923
    20.3189     7627
    20.3845     7796
    20.4502     7633
    20.5158     7596
    20.5815     7408
    20.6471     7493
    20.7128     7512
    20.7784     7583
    20.8441     7607
    20.9097     7564
    20.9754     7442
    21.0410     7550
    21.1067     7644
    21.1723     7462
    21.2380     7390
    21.3036     7701
    21.3693     7519
    21.4349     7613
    21.5006     7673
    21.5662     7470
    21.6319     7679
    21.6975     7511
    21.7632     7551
    21.8288     7619
    21.8945     7502
    21.9602     7843
    22.0258     7488
    22.0915     7385
    22.1571     7429
    22.2228     7545
    22.2884     7490
    22.3541     7485
    22.4197     7635
    22.4854     7953
    22.5510     9248
    22.6167    25212
    22.6823    27046
    22.7480    11601
    22.8136     8033
    22.8793     7679
    22.9449     7593
    23.0106     7522
    23.0762     7477
    23.1419     7412
    23.2075     7579
    23.2732     7638
    23.3388     7773
    23.4045     7437
    23.4701     7443
    23.5358     7534
    23.6014     7678
    23.6671     7934
    23.7327     8883
    23.7984    23892
    23.8640    23737
    23.9297    11434
    23.9953     8618
    24.0610     9425
    24.1266    25438
    24.1923    28561
    24.2580    13236
    24.3236     8288
    24.3893     8059
    24.4549     8056
    24.5206     7703
    24.5862     7637
    24.6519     7546
    24.7175     7537
    24.7832     7417
    24.8488     7307
    24.9145     7486
    24.9801     7292
    25.0458     7399
    25.1114     7463
    25.1771     7418
    25.2427     7355
    25.3084     7748
    25.3740     7168
    25.4397     7283
    25.5053     7411
    25.5710     7150
    25.6366     7260
    25.7023     7237
    25.7679     7406
    25.8336     7202
    25.8992     7209
    25.9649     7465
    26.0305     7441
    26.0962     7530
    26.1618     7515
    26.2275     7298
    26.2931     7299
    26.3588     7355
    26.4244     7306
    26.4901     7180
    26.5558     7165
    26.6214     7204
    26.6871     7020
    26.7527     7182
    26.8184     7271
    26.8840     7082
    26.9497     7257
    27.0153     7333
    27.0810     7514
    27.1466     7572
    27.2123     7527
    27.2779     7291
    27.3436     7544
    27.4092     7378
    27.4749     7409
    27.5405     7493
    27.6062     7300
    27.6718     7527
    27.7375     7933
    27.8031     8606
    27.8688     9357
    27.9344    12328
    28.0001    36186
    28.0657    84242
    28.1314    50529
    28.1970    14664
    28.2627     9541
    28.3283     8269
    28.3940     8049
    28.4596     7966
    28.5253     8796
    28.5909     8430
    28.6566     7783
    28.7222     7579
    28.7879     7565
    28.8536     8028
    28.9192     8863
    28.9849    21866
    29.0505    30081
    29.1162    20137
    29.1818     9139
    29.2475     9776
    29.3131    14266
    29.3788    16216
    29.4444    11092
    29.5101     7831
    29.5757     7385
    29.6414     7253
    29.7070     7069
    29.7727     7123
    29.8383     7211
    29.9040     7076
    29.9696     7142
    30.0353     7131
    30.1009     7069
    30.1666     6931
    30.2322     6979
    30.2979     6940
    30.3635     7075
    30.4292     7187
    30.4948     7077
    30.5605     6820
    30.6261     6968
    30.6918     6802
    30.7574     7140
    30.8231     6872
    30.8887     7079
    30.9544     7019
    31.0200     6937
    31.0857     6850
    31.1514     6788
    31.2170     6970
    31.2827     6893
    31.3483     6986
    31.4140     6863
    31.4796     6871
    31.5453     6872
    31.6109     6954
    31.6766     6792
    31.7422     6900
    31.8079     6797
    31.8735     6678
    31.9392     6680
    32.0048     6713
    32.0705     6954
    32.1361     6977
    32.2018     6662
    32.2674     7009
    32.3331     6856
    32.3987     6932
    32.4644     7004
    32.5300     6957
    32.5957     6947
    32.6613     6954
    32.7270     7141
    32.7926     7288
    32.8583     7473
    32.9239     7878
    32.9896    14614
    33.0552    23947
    33.1209    17798
    33.1865     8911
    33.2522     7353
    33.3178     7001
    33.3835     6840
    33.4492     7024
    33.5148     6925
    33.5805     7067
    33.6461     7170
    33.7118     7971
    33.7774    14417
    33.8431    11263
    33.9087     9589
    33.9744     7730
    34.0400     7767
    34.1057     7369
    34.1713     7360
    34.2370    12614
    34.3026    10457
    34.3683     9406
    34.4339     6993
    34.4996     6797
    34.5652     6697
    34.6309     6893
    34.6965     6697
    34.7622     6807
    34.8278     6756
    34.8935     7167
    34.9591     9715
    35.0248    10628
    35.0904     9411
    35.1561     7347
    35.2217     7534
    35.2874     7036
    35.3530     6745
    35.4187     6713
    35.4843     6683
    35.5500     6637
    35.6156     6579
    35.6813     6519
    35.7470     6645
    35.8126     6639
    35.8783     6537
    35.9439     6563
    36.0096     6553
    36.0752     6585
    36.1409     6633
    36.2065     6696
    36.2722     6689
    36.3378     6702
    36.4035     6646
    36.4691     8732
    36.5348     8466
    36.6004     8125
    36.6661     6684
    36.7317     6692
    36.7974     6496
    36.8630     6432
    36.9287     6621
    36.9943     6524
    37.0600     6718
    37.1256     6539
    37.1913     6549
    37.2569     6554
    37.3226     6584
    37.3882     6543
    37.4539     6311
    37.5195     6661
    37.5852     7081
    37.6508     7580
    37.7165     7632
    37.7821    11197
    37.8478    12140
    37.9134    10762
    37.9791     8387
    38.0448     6817
    38.1104     6649
    38.1761     6565
    38.2417     6404
    38.3074     6611
    38.3730     6581
    38.4387     6218
    38.5043     6582
    38.5700     6480
    38.6356     6494
    38.7013     6522
    38.7669     6431
    38.8326     6422
    38.8982     6442
    38.9639     6591
    39.0295     6240
    39.0952     6661
    39.1608     6678
    39.2265     7016
    39.2921     9755
    39.3578     7765
    39.4234     7208
    39.4891     6608
    39.5547     6451
    39.6204     6399
    39.6860     6578
    39.7517     6391
    39.8173     6441
    39.8830     6529
    39.9486     6556
    40.0143     6637
    40.0799     6529
    40.1456     6623
    40.2112     7251
    40.2769     7068
    40.3425     7313
    40.4082     9128
    40.4739     8255
    40.5395     7947
    40.6052     6705
    40.6708     6597
    40.7365     6359
    40.8021     6311
    40.8678     6305
    40.9334     6379
    40.9991     6497
    41.0647     6818
    41.1304     8265
    41.1960     8045
    41.2617    11385
    41.3273    11536
    41.3930     9767
    41.4586     8171
    41.5243     6802
    41.5899     6462
    41.6556     6323
    41.7212     6439
    41.7869     6390
    41.8525     6553
    41.9182     6547
    41.9838     6472
    42.0495     6412
    42.1151     6485
    42.1808     6383
    42.2464     6443
    42.3121     6344
    42.3777     6279
    42.4434     6536
    42.5090     6334
    42.5747     6225
    42.6404     6412
    42.7060     6355
    42.7717     6399
    42.8373     6289
    42.9030     6403
    42.9686     6159
    43.0343     6354
    43.0999     6268
    43.1656     6401
    43.2312     6309
    43.2969     6294
    43.3625     6450
    43.4282     6275
    43.4938     6283
    43.5595     6445
    43.6251     6821
    43.6908     8130
    43.7564     6938
    43.8221     7168
    43.8877     6501
    43.9534     6257
    44.0190     6274
    44.0847     6466
    44.1503     6529
    44.2160     6583
    44.2816     6611
    44.3473     6574
    44.4129     6474
    44.4786     6501
    44.5442     6657
    44.6099     7008
    44.6755     7295
    44.7412    10970
    44.8068    11620
    44.8725     9689
    44.9381     8180
    45.0038     6881
    45.0695     6484
    45.1351     6310
    45.2008     6331
    45.2664     6349
    45.3321     6466
    45.3977     6309
    45.4634     6383
    45.5290     6451
    45.5947     6318
    45.6603     6502
    45.7260     6283
    45.7916     6262
    45.8573     6346
    45.9229     6604
    45.9886     6649
    46.0542     7060
    46.1199     7288
    46.1855    10064
    46.2512    19920
    46.3168    12064
    46.3825    13258
    46.4481     7992
    46.5138     6563
    46.5794     6652
    46.6451     6433
    46.7107     6276
    46.7764     6430
    46.8420     6577
    46.9077     6382
    46.9733     6262
    47.0390     6379
    47.1046     6309
    47.1703     6565
    47.2359     6461
    47.3016     6413
    47.3673     6551
    47.4329     6790
    47.4986     6657
    47.5642     7717
    47.6299    13943
    47.6955     9610
    47.7612    10768
    47.8268     7740
    47.8925     6935
    47.9581     6624
    48.0238     7094
    48.0894     6976
    48.1551     7208
    48.2207     8261
    48.2864    13497
    48.3520    16550
    48.4177    12337
    48.4833    11630
    48.5490     7667
    48.6146     7116
    48.6803     7033
    48.7459     7875
    48.8116     7720
    48.8772     7817
    48.9429     7234
    49.0085     6955
    49.0742     6809
    49.1398     6938
    49.2055     7151
    49.2711     8045
    49.3368    12450
    49.4024    14506
    49.4681    13454
    49.5337    11898
    49.5994     8591
    49.6651     7557
    49.7307     6964
    49.7964     6843
    49.8620     7126
    49.9277     7858
    49.9933    12856
    50.0590    17770
    50.1246    11208
    50.1903    12431
    50.2559     7685
    50.3216     6860
    50.3872     6727
    50.4529     6526
    50.5185     6642
    50.5842     6539
    50.6498     7436
    50.7155     8793
    50.7811     7530
    50.8468     8444
    50.9124     9392
    50.9781     8008
    51.0437     7719
    51.1094     7155
    51.1750     6489
    51.2407     6475
    51.3063     6395
    51.3720     6333
    51.4376     6663
    51.5033     6470
    51.5689     6624
    51.6346     6697
    51.7002     7488
    51.7659    14175
    51.8315     9585
    51.8972    12075
    51.9628     8794
    52.0285     8824
    52.0942     7210
    52.1598     7021
    52.2255     6687
    52.2911     6217
    52.3568     6465
    52.4224     6414
    52.4881     6352
    52.5537     6467
    52.6194     6714
    52.6850     8120
    52.7507     6684
    52.8163     7048
    52.8820     6754
    52.9476     6450
    53.0133     6456
    53.0789     6344
    53.1446     6342
    53.2102     6260
    53.2759     6072
    53.3415     6303
    53.4072     6347
    53.4728     6378
    53.5385     6399
    53.6041     6229
    53.6698     6325
    53.7354     6272
    53.8011     6257
    53.8667     6283
    53.9324     6200
    53.9980     6391
    54.0637     6296
    54.1293     6235
    54.1950     6295
    54.2607     6219
    54.3263     6285
    54.3920     6114
    54.4576     6222
    54.5233     6194
    54.5889     6245
    54.6546     6432
    54.7202     6262
    54.7859     6062
    54.8515     6308
    54.9172     6151
    54.9828     6293
    55.0485     6265
    55.1141     6185
    55.1798     6232
    55.2454     6321
    55.3111     6473
    55.3767     6294
    55.4424     6604
    55.5080     7358
    55.5737     7878
    55.6393     6852
    55.7050     7532
    55.7706     6875
    55.8363     7112
    55.9019     8273
    55.9676    11596
    56.0332    11015
    56.0989     8860
    56.1645     9281
    56.2302     7201
    56.2958     7192
    56.3615     6805
    56.4271     6949
    56.4928     7484
    56.5584     9402
    56.6241     7316
    56.6898     8196
    56.7554     7603
    56.8211     8510
    56.8867    10390
    56.9524     7684
    57.0180     8435
    57.0837     7375
    57.1493     6999
    57.2150     6793
    57.2806     6567
    57.3463     6409
    57.4119     6479
    57.4776     6367
    57.5432     6361
    57.6089     6202
    57.6745     6442
    57.7402     6391
    57.8058     6489
    57.8715     7201
    57.9371     8496
    58.0028    10884
    58.0684    10604
    58.1341     9248
    58.1997     8773
    58.2654     7455
    58.3310     6605
    58.3967     6344
    58.4623     6063
    58.5280     6332
    58.5936     6330
    58.6593     6486
    58.7249     6621
    58.7906     7137
    58.8562     7520
    58.9219     7473
    58.9876     9460
    59.0532     8621
    59.1189     8943
    59.1845    12271
    59.2502     9309
    59.3158     8590
    59.3815     9143
    59.4471     9381
    59.5128     9053
    59.5784     7258
    59.6441     7840
    59.7097     7138
    59.7754     6533
    59.8410     6442
    59.9067     6465
    59.9723     6534
    60.0380     7652
    60.1036    12094
    60.1693     9386
    60.2349     8207
    60.3006     8847
    60.3662     6895
    60.4319     6388
    60.4975     6516
    60.5632     6357
    60.6288     6436
    60.6945     6672
    60.7601     7985
    60.8258     8215
    60.8914     7092
    60.9571     8070
    61.0227     6822
    61.0884     6484
    61.1540     6442
    61.2197     6378
    61.2854     6541
    61.3510     7135
    61.4167     9070
    61.4823    13232
    61.5480    11098
    61.6136     9930
    61.6793    10829
    61.7449     8470
    61.8106     6821
    61.8762     7088
    61.9419     6536
    62.0075     6094
    62.0732     6349
    62.1388     6147
    62.2045     6024
    62.2701     6212
    62.3358     6161
    62.4014     5995
    62.4671     6124
    62.5327     5962
    62.5984     6041
    62.6640     6140
    62.7297     6160
    62.7953     6077
    62.8610     5970
    62.9266     6017
    62.9923     6217
    63.0579     6010
    63.1236     6201
    63.1892     6036
    63.2549     6243
    63.3205     6050
    63.3862     6160
    63.4518     6202
    63.5175     7239
    63.5831     8695
    63.6488     7592
    63.7145     7190
    63.7801     7511
    63.8458     6786
    63.9114     6354
    63.9771     6149
    64.0427     6063
    64.1084     6038
    64.1740     6004
    64.2397     5763
    64.3053     5954
    64.3710     5994
    64.4366     5865
    64.5023     6185
    64.5679     6465
    64.6336     7109
    64.6992     6827
    64.7649     6538
    64.8305     6832
    64.8962     6151
    64.9618     6062
    65.0275     6125
    65.0931     5878
    65.1588     5979
    65.2244     6160
    65.2901     6036
    65.3557     5994
    65.4214     5823
    65.4870     5990
    65.5527     6084
    65.6183     5924
    65.6840     6054
    65.7496     6047
    65.8153     6064
    65.8810     6070
    65.9466     5870
    66.0123     5892
    66.0779     5831
    66.1436     5966
    66.2092     5909
    66.2749     6145
    66.3405     6020
    66.4062     6153
    66.4718     6099
    66.5375     5916
    66.6031     6149
    66.6688     5998
    66.7344     6016
    66.8001     6083
    66.8657     6058
    66.9314     5853
    66.9970     5898
    67.0627     5913
    67.1283     6014
    67.1940     6010
    67.2596     5901
    67.3253     5830
    67.3909     6192
    67.4566     5962
    67.5222     5919
    67.5879     6047
    67.6535     5942
    67.7192     6035
    67.7848     5829
    67.8505     5983
    67.9161     6036
    67.9818     6011
    68.0474     5868
    68.1131     5940
    68.1787     6043
    68.2444     6067
    68.3101     5902
    68.3757     5858
    68.4414     6059
    68.5070     6014
    68.5727     6084
    68.6383     5815
    68.7040     5884
    68.7696     5980
    68.8353     5980
    68.9009     5969
    68.9666     6123
    69.0322     6189
    69.0979     6454
    69.1635     6670
    69.2292     7245
    69.2948     8527
    69.3605     8403
    69.4261     6931
    69.4918     7324
    69.5574     7510
    69.6231     7290
    69.6887     7092
    69.7544     7660
    69.8200     7695
    69.8857     8280
    69.9513     7620
    70.0170     6460
    70.0826     6829
    70.1483     6222
    70.2139     6169
    70.2796     5994
    70.3452     5996
    70.4109     5935
    70.4765     6199
    70.5422     6130
    70.6078     6146
    70.6735     6341
    70.7392     6198
    70.8048     6510
    70.8705     6611
    70.9361     6486
    71.0018     6254
    71.0674     6486
    71.1331     6450
    71.1987     6306
    71.2644     6339
    71.3300     6224
    71.3957     5984
    71.4613     6217
    71.5270     6056
    71.5926     6119
    71.6583     6046
    71.7239     6089
    71.7896     6083
    71.8552     6025
    71.9209     6483
    71.9865     6483
    72.0522     6676
    72.1178     7342
    72.1835     8696
    72.2491     7915
    72.3148     6921
    72.3804     7250
    72.4461     7089
    72.5117     6320
    72.5774     6038
    72.6430     6045
    72.7087     6057
    72.7743     6381
    72.8400     6421
    72.9057     6185
    72.9713     6033
    73.0370     6225
    73.1026     5996
    73.1683     6072
    73.2339     5976
    73.2996     6198
    73.3652     6029
    73.4309     5941
    73.4965     6191
    73.5622     6527
    73.6278     7196
    73.6935     7194
    73.7591     6469
    73.8248     6648
    73.8904     6741
    73.9561     6319
    74.0217     6193
    74.0874     6033
    74.1530     6059
    74.2187     6149
    74.2843     6051
    74.3500     6172
    74.4156     6720
    74.4813     6878
    74.5469     7384
    74.6126     7655
    74.6782     6659
    74.7439     6550
    74.8095     6869
    74.8752     6331
    74.9408     6165
    75.0065     5919
    75.0722     5984
    75.1378     5909
    75.2035     6041
    75.2691     5825
    75.3348     5811
    75.4004     5717
    75.4661     5941
    75.5317     5951
    75.5974     5731
    75.6630     5848
    75.7287     5781
    75.7943     5778
    75.8600     5975
    75.9256     6197
    75.9913     6200
    76.0569     5923
    76.1226     5912
    76.1882     6143
    76.2539     5956
    76.3195     5877
    76.3852     6060
    76.4508     5931
    76.5165     6290
    76.5821     6200
    76.6478     5920
    76.7134     6036
    76.7791     6187
    76.8447     6087
    76.9104     6329
    76.9760     6668
    77.0417     7861
    77.1073     7788
    77.1730     6840
    77.2386     6565
    77.3043     7066
    77.3699     6798
    77.4356     6311
    77.5013     6465
    77.5669     7028
    77.6326     6123
    77.6982     6299
    77.7639     6503
    77.8295     6528
    77.8952     5942
    77.9608     5952
    78.0265     6009
    78.0921     5829
    78.1578     5781
    78.2234     5798
    78.2891     5778
    78.3547     5865
    78.4204     5794
    78.4860     5923
    78.5517     5807
    78.6173     6037
    78.6830     5960
    78.7486     5801
    78.8143     6014
    78.8799     6080
    78.9456     6040
    79.0112     6024
    79.0769     5971
    79.1425     6187
    79.2082     6330
    79.2738     6417
    79.3395     6840
    79.4051     6969
    79.4708     6567
    79.5364     6398
    79.6021     6736
    79.6677     6657
    79.7334     6236
    79.7990     6354
    79.8647     7044
    79.9304     7338
    79.9960     6600
    80.0617     6256
    80.1273     6574
    80.1930     6512
    80.2586     6302
    80.3243     6216
    80.3899     5912
    80.4556     5988
    80.5212     5974
    80.5869     6231
    80.6525     6155
    80.7182     5947
    80.7838     6042
    80.8495     6353
    80.9151     6545
    80.9808     6792
    81.0464     6484
    81.1121     6665
    81.1777     6597
    81.2434     6688
    81.3090     6481
    81.3747     6529
    81.4403     6286
    81.5060     6317
    81.5716     6423
    81.6373     6730
    81.7029     7048
    81.7686     6702
    81.8342     6390
    81.8999     6332
    81.9655     6413
    82.0312     6320
    82.0968     6072
    82.1625     5945
    82.2281     5884
    82.2938     5894
    82.3595     5928
    82.4251     6081
    82.4908     6055
    82.5564     5875
    82.6221     6159
    82.6877     6415
    82.7534     6433
    82.8190     6024
    82.8847     6193
    82.9503     6481
    83.0160     6436
    83.0816     6247
    83.1473     6794
    83.2129     6351
    83.2786     6271
    83.3442     6014
    83.4099     6170
    83.4755     5940
    83.5412     5853
    83.6068     5834
    83.6725     6019
    83.7381     5907
    83.8038     5833
    83.8694     5781
    83.9351     5669
    84.0007     5715
    84.0664     5623
    84.1320     5867
    84.1977     5754
    84.2633     5824
    84.3290     5802
    84.3946     5781
    84.4603     5875
    84.5260     5968
    84.5916     5798
    84.6573     5940
    84.7229     5830
    84.7886     5978
    84.8542     6092
    84.9199     6379
    84.9855     6251
    85.0512     6368
    85.1168     6139
    85.1825     6132
    85.2481     6260
    85.3138     6060
    85.3794     5950
    85.4451     5951
    85.5107     5836
    85.5764     5745
    85.6420     5883
    85.7077     5915
    85.7733     5819
    85.8390     6037
    85.9046     5975
    85.9703     5914
    86.0359     5884
    86.1016     5798
    86.1672     5787
    86.2329     5853
    86.2985     5803
    86.3642     5965
    86.4298     5840
    86.4955     5689
    86.5611     6046
    86.6268     5911
    86.6925     6093
    86.7581     6128
    86.8238     6620
    86.8894     6441
    86.9551     6403
    87.0207     6295
    87.0864     6603
    87.1520     6891
    87.2177     6294
    87.2833     6424
    87.3490     6523
    87.4146     6945
    87.4803     6629
    87.5459     6186
    87.6116     6139
    87.6772     6042
    87.7429     6195
    87.8085     6079
    87.8742     5752
    87.9398     5918
    88.0055     6019
    88.0711     5873
    88.1368     5940
    88.2024     6059
    88.2681     6034
    88.3337     6138
    88.3994     6448
    88.4650     6477
    88.5307     6162
    88.5963     6066
    88.6620     6103
    88.7276     6333
    88.7933     6388
    88.8589     6370
    88.9246     6042
    88.9902     5892
    89.0559     6188
    89.1216     6478
    89.1872     6465
    89.2529     6164
    89.3185     5998
    89.3842     6070
    89.4498     6408
    89.5155     6482
    89.5811     6441
    89.6468     6172
    89.7124     6349
    89.7781     6608
    89.8437     6833
    89.9094     6965
    89.9750     6404
    90.0407     6069
    90.1063     6155
    90.1720     6137
    90.2376     6075
    90.3033     5965
    90.3689     5805
    90.4346     5673
    90.5002     5827
    90.5659     5818
    90.6315     5822
    90.6972     5590
    90.7628     5775
    90.8285     5759
    90.8941     5667
    90.9598     5686
    91.0254     5618
    91.0911     5847
    91.1567     5739
    91.2224     5784
    91.2880     5820
    91.3537     5915
    91.4193     5847
    91.4850     5873
    91.5507     5914
    91.6163     6002
    91.6820     6208
    91.7476     5860
    91.8133     6008
    91.8789     5887
    91.9446     6073
    92.0102     6262
    92.0759     6332
    92.1415     6184
    92.2072     6039
    92.2728     6308
    92.3385     6755
    92.4041     6907
    92.4698     6962
    92.5354     6413
    92.6011     6192
    92.6667     6348
    92.7324     6431
    92.7980     6222
    92.8637     6007
    92.9293     5787
    92.9950     5864
    93.0606     5723
    93.1263     5973
    93.1919     5776
    93.2576     5902
    93.3232     6123
    93.3889     5779
    93.4545     5954
    93.5202     5938
    93.5858     5817
    93.6515     5740
    93.7171     5745
    93.7828     5867
    93.8484     5657
    93.9141     5591
    93.9798     5731
    94.0454     5754
    94.1111     5937
    94.1767     6317
    94.2424     6383
    94.3080     6145
    94.3737     6010
    94.4393     5869
    94.5050     6055
    94.5706     6158
    94.6363     6031
    94.7019     5725
    94.7676     5817
    94.8332     6008
    94.8989     5811
    94.9645     6042
    95.0302     6141
    95.0958     6330
    95.1615     6327
    95.2271     6443
    95.2928     6252
    95.3584     6093
    95.4241     6343
    95.4897     6444
    95.5554     6381
    95.6210     6098
    95.6867     6437
    95.7523     6464
    95.8180     6119
    95.8836     6035
    95.9493     6154
    96.0149     5993
    96.0806     6383
    96.1463     6312
    96.2119     6026
    96.2776     5834
    96.3432     5856
    96.4089     5977
    96.4745     6013
    96.5402     5812
    96.6058     5742
    96.6715     5797
    96.7371     5520
    96.8028     5646
    96.8684     5621
    96.9341     5757
    96.9997     5710
    97.0654     5636
    97.1310     5685
    97.1967     5773
    97.2623     5802
    97.3280     5766
    97.3936     5996
    97.4593     6120
    97.5249     6203
    97.5906     6221
    97.6562     6114
    97.7219     6080
    97.7875     5988
    97.8532     5950
    97.9188     6085
    97.9845     6078
    98.0501     6109
    98.1158     5850
    98.1814     5734
    98.2471     5782
    98.3128     5747
    98.3784     5859
    98.4441     5737
    98.5097     5835
    98.5754     5903
    98.6410     5865
    98.7067     5838
    98.7723     6178
    98.8380     6169
    98.9036     5989
    98.9693     6008
    99.0349     6184
    99.1006     6134
    99.1662     5980
    99.2319     5932
    99.2975     5762
    99.3632     6074
    99.4288     5744
    99.4945     5581
    99.5601     5654
    99.6258     5510
    99.6914     5778
    99.7571     5819
    99.8227     5707
    99.8884     5932
    99.9540     5731
    99.9934     5544