File: powder_X-ray_diffraction/variable-temperature_experiments/NaNbO2F2/raw_data/120°C.XY
! Initial file:   D:\ZAKARY_OUAIL\MA_THESE\Deuxième_année_de_thèse\DRX\Affinement_DRX\Fullprof\Thermodiff3-nuit_NaNbO2F2\120°C\NaNbO2F2-Lent_120°C.xrdml
! Initial format:  58
! WAVE (A):      1.54060     1.54060     1.00000
! REM : data have been multiplied by     1.0000
! X_data : 2 Theta (deg.)
! Y_data : Intensity (arb. units)
!     X         Y
!--------------------------------------------------------------------------------
    10.0116     7994
    10.0772     7961
    10.1429     8180
    10.2086     8118
    10.2742     8036
    10.3399     7977
    10.4055     8207
    10.4712     7984
    10.5368     7911
    10.6025     8036
    10.6681     7891
    10.7338     8005
    10.7994     8062
    10.8651     8188
    10.9307     8440
    10.9964     8592
    11.0620     8945
    11.1277    11001
    11.1933    21887
    11.2590    79639
    11.3246    25540
    11.3903     9197
    11.4559     8445
    11.5216     8312
    11.5872     8111
    11.6529     7956
    11.7185     8153
    11.7842     8343
    11.8498     8420
    11.9155     8405
    11.9811     8308
    12.0468     8133
    12.1124     8347
    12.1781     8261
    12.2437     8244
    12.3094     8377
    12.3750     8130
    12.4407     8446
    12.5063     8397
    12.5720     8416
    12.6377     8240
    12.7033     8429
    12.7690     8172
    12.8346     8176
    12.9003     8324
    12.9659     8140
    13.0316     8165
    13.0972     8201
    13.1629     8139
    13.2285     8324
    13.2942     8054
    13.3598     8098
    13.4255     8221
    13.4911     8142
    13.5568     8190
    13.6224     8062
    13.6881     8192
    13.7537     8211
    13.8194     8168
    13.8850     7918
    13.9507     8187
    14.0163     8166
    14.0820     8007
    14.1476     8078
    14.2133     7999
    14.2789     8149
    14.3446     8102
    14.4102     8247
    14.4759     8697
    14.5415     9606
    14.6072     8458
    14.6728     8012
    14.7385     8034
    14.8041     7778
    14.8698     7978
    14.9355     7773
    15.0011     7798
    15.0668     7672
    15.1324     7915
    15.1981     7737
    15.2637     7770
    15.3294     8023
    15.3950     7881
    15.4607     7699
    15.5263     7787
    15.5920     7764
    15.6576     7934
    15.7233     7815
    15.7889     7653
    15.8546     7823
    15.9202     8035
    15.9859     7900
    16.0515     7735
    16.1172     7760
    16.1828     7667
    16.2485     7806
    16.3141     7670
    16.3798     7702
    16.4454     7803
    16.5111     7845
    16.5767     7640
    16.6424     7646
    16.7080     7659
    16.7737     8189
    16.8393     7954
    16.9050     7705
    16.9706     7759
    17.0363     7603
    17.1019     7398
    17.1676     7782
    17.2333     7419
    17.2989     7678
    17.3646     7554
    17.4302     7584
    17.4959     7699
    17.5615     7506
    17.6272     7567
    17.6928     7539
    17.7585     7413
    17.8241     7573
    17.8898     7662
    17.9554     7690
    18.0211     7584
    18.0867     7227
    18.1524     7326
    18.2180     7516
    18.2837     7240
    18.3493     7413
    18.4150     7439
    18.4806     7260
    18.5463     7055
    18.6119     7462
    18.6776     7403
    18.7432     7339
    18.8089     7527
    18.8745     7236
    18.9402     7319
    19.0058     7240
    19.0715     7332
    19.1371     7417
    19.2028     7900
    19.2684     7692
    19.3341     7718
    19.3997     7402
    19.4654     7658
    19.5311     7682
    19.5967     7761
    19.6624     8489
    19.7280     9517
    19.7937    17121
    19.8593    73675
    19.9250    68174
    19.9906    16130
    20.0563     9240
    20.1219     8286
    20.1876     7891
    20.2532     7976
    20.3189     7771
    20.3845     7733
    20.4502     7714
    20.5158     7518
    20.5815     7666
    20.6471     7754
    20.7128     7658
    20.7784     7423
    20.8441     7516
    20.9097     7563
    20.9754     7420
    21.0410     7495
    21.1067     7519
    21.1723     7605
    21.2380     7297
    21.3036     7480
    21.3693     7466
    21.4349     7402
    21.5006     7314
    21.5662     7425
    21.6319     7560
    21.6975     7665
    21.7632     7489
    21.8288     7570
    21.8945     7642
    21.9602     7614
    22.0258     7397
    22.0915     7489
    22.1571     7414
    22.2228     7590
    22.2884     7439
    22.3541     7573
    22.4197     7646
    22.4854     8107
    22.5510     9824
    22.6167    29078
    22.6823    25602
    22.7480    10247
    22.8136     8146
    22.8793     7697
    22.9449     7514
    23.0106     7440
    23.0762     7650
    23.1419     7601
    23.2075     7507
    23.2732     7622
    23.3388     7613
    23.4045     7608
    23.4701     7443
    23.5358     7710
    23.6014     7763
    23.6671     7936
    23.7327     9167
    23.7984    23694
    23.8640    23528
    23.9297    11204
    23.9953     8613
    24.0610     9820
    24.1266    30074
    24.1923    27811
    24.2580    11675
    24.3236     8217
    24.3893     8045
    24.4549     7865
    24.5206     7560
    24.5862     7406
    24.6519     7488
    24.7175     7420
    24.7832     7414
    24.8488     7582
    24.9145     7326
    24.9801     7415
    25.0458     7337
    25.1114     7455
    25.1771     7279
    25.2427     7388
    25.3084     7709
    25.3740     7474
    25.4397     7254
    25.5053     7346
    25.5710     7358
    25.6366     7301
    25.7023     7123
    25.7679     7165
    25.8336     7352
    25.8992     7123
    25.9649     7643
    26.0305     7400
    26.0962     7186
    26.1618     7426
    26.2275     7048
    26.2931     7168
    26.3588     7148
    26.4244     7235
    26.4901     7091
    26.5558     7136
    26.6214     7250
    26.6871     7054
    26.7527     7260
    26.8184     7096
    26.8840     7105
    26.9497     7032
    27.0153     7224
    27.0810     7475
    27.1466     7497
    27.2123     7362
    27.2779     7491
    27.3436     7641
    27.4092     7387
    27.4749     7499
    27.5405     7493
    27.6062     7391
    27.6718     7763
    27.7375     7914
    27.8031     8640
    27.8688     9834
    27.9344    13753
    28.0001    50228
    28.0657    76723
    28.1314    42008
    28.1970    12679
    28.2627     9095
    28.3283     8169
    28.3940     7987
    28.4596     7860
    28.5253     9095
    28.5909     8552
    28.6566     7675
    28.7222     7598
    28.7879     7725
    28.8536     7990
    28.9192     9029
    28.9849    25642
    29.0505    28043
    29.1162    18173
    29.1818     8871
    29.2475    10278
    29.3131    14946
    29.3788    14735
    29.4444    10444
    29.5101     7807
    29.5757     7525
    29.6414     7186
    29.7070     7270
    29.7727     7174
    29.8383     7176
    29.9040     7133
    29.9696     7007
    30.0353     6931
    30.1009     6998
    30.1666     7058
    30.2322     7084
    30.2979     6885
    30.3635     7016
    30.4292     6944
    30.4948     6946
    30.5605     6964
    30.6261     7377
    30.6918     6945
    30.7574     6955
    30.8231     7127
    30.8887     6800
    30.9544     6951
    31.0200     6962
    31.0857     6977
    31.1514     7101
    31.2170     7064
    31.2827     6890
    31.3483     6840
    31.4140     6842
    31.4796     6883
    31.5453     6820
    31.6109     6760
    31.6766     6945
    31.7422     6832
    31.8079     6754
    31.8735     6786
    31.9392     6957
    32.0048     6728
    32.0705     6900
    32.1361     6908
    32.2018     6752
    32.2674     6940
    32.3331     7039
    32.3987     7090
    32.4644     7040
    32.5300     6881
    32.5957     6803
    32.6613     6883
    32.7270     6931
    32.7926     7173
    32.8583     7470
    32.9239     8378
    32.9896    18346
    33.0552    22286
    33.1209    16333
    33.1865     8629
    33.2522     7416
    33.3178     6973
    33.3835     6936
    33.4492     6797
    33.5148     6870
    33.5805     6938
    33.6461     7217
    33.7118     9144
    33.7774    14831
    33.8431    11245
    33.9087     8661
    33.9744     7917
    34.0400     7564
    34.1057     7456
    34.1713     7803
    34.2370    13464
    34.3026    10322
    34.3683     8653
    34.4339     7042
    34.4996     6959
    34.5652     6713
    34.6309     6727
    34.6965     6632
    34.7622     6846
    34.8278     6944
    34.8935     7359
    34.9591    11304
    35.0248     9817
    35.0904     8672
    35.1561     7501
    35.2217     7186
    35.2874     7126
    35.3530     6567
    35.4187     6754
    35.4843     6523
    35.5500     6772
    35.6156     6788
    35.6813     6503
    35.7470     6500
    35.8126     6495
    35.8783     6578
    35.9439     6783
    36.0096     6710
    36.0752     6593
    36.1409     6614
    36.2065     6656
    36.2722     6654
    36.3378     6737
    36.4035     6773
    36.4691     8819
    36.5348     8393
    36.6004     8348
    36.6661     6674
    36.7317     6675
    36.7974     6652
    36.8630     6434
    36.9287     6513
    36.9943     6618
    37.0600     6623
    37.1256     6658
    37.1913     6656
    37.2569     6415
    37.3226     6658
    37.3882     6594
    37.4539     6545
    37.5195     6719
    37.5852     7351
    37.6508     7318
    37.7165     8441
    37.7821    12393
    37.8478    11706
    37.9134     9501
    37.9791     7876
    38.0448     6773
    38.1104     6871
    38.1761     6752
    38.2417     6718
    38.3074     6493
    38.3730     6407
    38.4387     6549
    38.5043     6230
    38.5700     6355
    38.6356     6609
    38.7013     6637
    38.7669     6415
    38.8326     6450
    38.8982     6430
    38.9639     6528
    39.0295     6615
    39.0952     6415
    39.1608     6607
    39.2265     7471
    39.2921     9158
    39.3578     7872
    39.4234     7177
    39.4891     6440
    39.5547     6316
    39.6204     6341
    39.6860     6403
    39.7517     6334
    39.8173     6428
    39.8830     6513
    39.9486     6534
    40.0143     6548
    40.0799     6640
    40.1456     6730
    40.2112     7314
    40.2769     6807
    40.3425     7902
    40.4082     9258
    40.4739     8001
    40.5395     7438
    40.6052     6479
    40.6708     6582
    40.7365     6339
    40.8021     6447
    40.8678     6442
    40.9334     6451
    40.9991     6567
    41.0647     7240
    41.1304     8030
    41.1960     8930
    41.2617    11940
    41.3273    11085
    41.3930     9115
    41.4586     7485
    41.5243     6633
    41.5899     6417
    41.6556     6297
    41.7212     6439
    41.7869     6527
    41.8525     6443
    41.9182     6383
    41.9838     6479
    42.0495     6405
    42.1151     6424
    42.1808     6552
    42.2464     6468
    42.3121     6346
    42.3777     6317
    42.4434     6325
    42.5090     6244
    42.5747     6429
    42.6404     6451
    42.7060     6528
    42.7717     6276
    42.8373     6443
    42.9030     6421
    42.9686     6401
    43.0343     6507
    43.0999     6286
    43.1656     6347
    43.2312     6458
    43.2969     6322
    43.3625     6356
    43.4282     6488
    43.4938     6362
    43.5595     6472
    43.6251     7169
    43.6908     7733
    43.7564     7087
    43.8221     7045
    43.8877     6394
    43.9534     6424
    44.0190     6406
    44.0847     6311
    44.1503     6623
    44.2160     6509
    44.2816     6587
    44.3473     6489
    44.4129     6396
    44.4786     6452
    44.5442     6843
    44.6099     6878
    44.6755     8184
    44.7412    13125
    44.8068     9664
    44.8725     9823
    44.9381     7242
    45.0038     6563
    45.0695     6490
    45.1351     6644
    45.2008     6208
    45.2664     6327
    45.3321     6329
    45.3977     6367
    45.4634     6185
    45.5290     6366
    45.5947     6291
    45.6603     6309
    45.7260     6411
    45.7916     6444
    45.8573     6448
    45.9229     6524
    45.9886     6726
    46.0542     6963
    46.1199     7484
    46.1855    13601
    46.2512    17622
    46.3168    12958
    46.3825    11270
    46.4481     7533
    46.5138     6857
    46.5794     6550
    46.6451     6592
    46.7107     6349
    46.7764     6436
    46.8420     6529
    46.9077     6262
    46.9733     6546
    47.0390     6371
    47.1046     6325
    47.1703     6270
    47.2359     6342
    47.3016     6584
    47.3673     6355
    47.4329     6647
    47.4986     6917
    47.5642     9145
    47.6299    14604
    47.6955     9388
    47.7612    10673
    47.8268     7448
    47.8925     6871
    47.9581     6860
    48.0238     6954
    48.0894     6822
    48.1551     7447
    48.2207     9695
    48.2864    17453
    48.3520    13798
    48.4177    12685
    48.4833     9476
    48.5490     7327
    48.6146     6845
    48.6803     6917
    48.7459     7644
    48.8116     7760
    48.8772     7866
    48.9429     7334
    49.0085     7027
    49.0742     6957
    49.1398     6828
    49.2055     7248
    49.2711     8599
    49.3368    15627
    49.4024    12341
    49.4681    14795
    49.5337     9967
    49.5994     8908
    49.6651     7166
    49.7307     6955
    49.7964     7063
    49.8620     7132
    49.9277     8319
    49.9933    15968
    50.0590    15000
    50.1246    12021
    50.1903    11190
    50.2559     7396
    50.3216     6892
    50.3872     6591
    50.4529     6604
    50.5185     6520
    50.5842     6840
    50.6498     7977
    50.7155     8423
    50.7811     7809
    50.8468     8945
    50.9124     8965
    50.9781     7712
    51.0437     7821
    51.1094     6827
    51.1750     6560
    51.2407     6533
    51.3063     6427
    51.3720     6325
    51.4376     6536
    51.5033     6481
    51.5689     6529
    51.6346     6666
    51.7002     7906
    51.7659    14567
    51.8315     9857
    51.8972    11747
    51.9628     8853
    52.0285     8386
    52.0942     6892
    52.1598     6972
    52.2255     6547
    52.2911     6395
    52.3568     6408
    52.4224     6286
    52.4881     6372
    52.5537     6347
    52.6194     6726
    52.6850     8196
    52.7507     7023
    52.8163     7155
    52.8820     6529
    52.9476     6478
    53.0133     6443
    53.0789     6334
    53.1446     6261
    53.2102     6151
    53.2759     6377
    53.3415     6344
    53.4072     6388
    53.4728     6260
    53.5385     6501
    53.6041     6005
    53.6698     6410
    53.7354     6343
    53.8011     6229
    53.8667     6430
    53.9324     6202
    53.9980     6421
    54.0637     6292
    54.1293     6359
    54.1950     6278
    54.2607     6301
    54.3263     6110
    54.3920     6175
    54.4576     6181
    54.5233     6209
    54.5889     6065
    54.6546     6150
    54.7202     6273
    54.7859     6347
    54.8515     6252
    54.9172     6458
    54.9828     6225
    55.0485     6430
    55.1141     6491
    55.1798     6370
    55.2454     6220
    55.3111     6309
    55.3767     6318
    55.4424     6449
    55.5080     7543
    55.5737     7784
    55.6393     7011
    55.7050     7509
    55.7706     6983
    55.8363     7454
    55.9019     9774
    55.9676    12488
    56.0332     9092
    56.0989     9450
    56.1645     7854
    56.2302     7216
    56.2958     6978
    56.3615     6818
    56.4271     7002
    56.4928     8861
    56.5584     8230
    56.6241     7392
    56.6898     8227
    56.7554     7379
    56.8211    10130
    56.8867     8724
    56.9524     7800
    57.0180     8255
    57.0837     7166
    57.1493     6912
    57.2150     6697
    57.2806     6789
    57.3463     6510
    57.4119     6341
    57.4776     6436
    57.5432     6417
    57.6089     6376
    57.6745     6527
    57.7402     6498
    57.8058     6717
    57.8715     7379
    57.9371     9475
    58.0028    10818
    58.0684    10110
    58.1341     9088
    58.1997     8275
    58.2654     6943
    58.3310     6545
    58.3967     6228
    58.4623     6280
    58.5280     6403
    58.5936     6101
    58.6593     6389
    58.7249     7094
    58.7906     7488
    58.8562     7401
    58.9219     8261
    58.9876     9254
    59.0532     8583
    59.1189    10771
    59.1845    11389
    59.2502     8556
    59.3158     9054
    59.3815     9081
    59.4471     9873
    59.5128     7666
    59.5784     7647
    59.6441     7490
    59.7097     6593
    59.7754     6410
    59.8410     6482
    59.9067     6424
    59.9723     6740
    60.0380     8422
    60.1036    12547
    60.1693     8592
    60.2349     8811
    60.3006     8562
    60.3662     6594
    60.4319     6485
    60.4975     6500
    60.5632     6360
    60.6288     6471
    60.6945     7073
    60.7601     9042
    60.8258     7387
    60.8914     7382
    60.9571     7514
    61.0227     6756
    61.0884     6608
    61.1540     6577
    61.2197     6543
    61.2854     6736
    61.3510     7685
    61.4167    11903
    61.4823    12817
    61.5480     9574
    61.6136    10438
    61.6793     9760
    61.7449     7692
    61.8106     6635
    61.8762     7174
    61.9419     6408
    62.0075     6274
    62.0732     6192
    62.1388     6068
    62.2045     6173
    62.2701     5976
    62.3358     6093
    62.4014     6010
    62.4671     6045
    62.5327     6081
    62.5984     6266
    62.6640     6049
    62.7297     5965
    62.7953     6021
    62.8610     6163
    62.9266     6213
    62.9923     6004
    63.0579     6215
    63.1236     6086
    63.1892     6233
    63.2549     6139
    63.3205     6042
    63.3862     6236
    63.4518     6682
    63.5175     7828
    63.5831     8567
    63.6488     7605
    63.7145     7067
    63.7801     7218
    63.8458     6719
    63.9114     6315
    63.9771     6226
    64.0427     6211
    64.1084     5887
    64.1740     6049
    64.2397     6031
    64.3053     5879
    64.3710     6084
    64.4366     6096
    64.5023     6469
    64.5679     7009
    64.6336     7046
    64.6992     6417
    64.7649     6717
    64.8305     6284
    64.8962     6271
    64.9618     6169
    65.0275     6128
    65.0931     5893
    65.1588     5985
    65.2244     6026
    65.2901     6067
    65.3557     6010
    65.4214     5997
    65.4870     6025
    65.5527     6196
    65.6183     6177
    65.6840     6078
    65.7496     5972
    65.8153     6004
    65.8810     5927
    65.9466     5791
    66.0123     5857
    66.0779     5876
    66.1436     5923
    66.2092     5979
    66.2749     5992
    66.3405     5949
    66.4062     6031
    66.4718     5830
    66.5375     6216
    66.6031     6195
    66.6688     5911
    66.7344     5893
    66.8001     5902
    66.8657     6099
    66.9314     5993
    66.9970     5816
    67.0627     5919
    67.1283     6023
    67.1940     6021
    67.2596     6073
    67.3253     5862
    67.3909     6101
    67.4566     5899
    67.5222     6186
    67.5879     5939
    67.6535     6051
    67.7192     5898
    67.7848     5876
    67.8505     5813
    67.9161     6048
    67.9818     6014
    68.0474     5966
    68.1131     5919
    68.1787     5915
    68.2444     6000
    68.3101     5976
    68.3757     6067
    68.4414     6097
    68.5070     5962
    68.5727     5960
    68.6383     5922
    68.7040     6088
    68.7696     5896
    68.8353     5854
    68.9009     5946
    68.9666     6071
    69.0322     6238
    69.0979     6672
    69.1635     6822
    69.2292     7851
    69.2948     8158
    69.3605     7781
    69.4261     7152
    69.4918     7235
    69.5574     7336
    69.6231     7202
    69.6887     7678
    69.7544     7511
    69.8200     7173
    69.8857     8418
    69.9513     7161
    70.0170     6365
    70.0826     6875
    70.1483     6202
    70.2139     6172
    70.2796     6005
    70.3452     6176
    70.4109     6087
    70.4765     6121
    70.5422     6005
    70.6078     6210
    70.6735     6007
    70.7392     6404
    70.8048     6624
    70.8705     6618
    70.9361     6467
    71.0018     6602
    71.0674     6496
    71.1331     6192
    71.1987     6321
    71.2644     6186
    71.3300     5916
    71.3957     6054
    71.4613     6051
    71.5270     6050
    71.5926     6041
    71.6583     6058
    71.7239     6058
    71.7896     6202
    71.8552     6426
    71.9209     6503
    71.9865     6439
    72.0522     6920
    72.1178     8295
    72.1835     8362
    72.2491     7102
    72.3148     6852
    72.3804     7172
    72.4461     6527
    72.5117     5999
    72.5774     5980
    72.6430     6020
    72.7087     6094
    72.7743     6568
    72.8400     6278
    72.9057     6010
    72.9713     6413
    73.0370     6252
    73.1026     6045
    73.1683     6038
    73.2339     6097
    73.2996     6174
    73.3652     6145
    73.4309     6074
    73.4965     6366
    73.5622     7078
    73.6278     7263
    73.6935     6454
    73.7591     6405
    73.8248     6730
    73.8904     6366
    73.9561     6341
    74.0217     6231
    74.0874     6201
    74.1530     6178
    74.2187     6173
    74.2843     6175
    74.3500     6635
    74.4156     6817
    74.4813     7033
    74.5469     7961
    74.6126     7177
    74.6782     6587
    74.7439     6758
    74.8095     6509
    74.8752     6074
    74.9408     5924
    75.0065     5962
    75.0722     6072
    75.1378     6072
    75.2035     5922
    75.2691     5884
    75.3348     5959
    75.4004     5913
    75.4661     5935
    75.5317     5939
    75.5974     5948
    75.6630     6050
    75.7287     5810
    75.7943     5831
    75.8600     6035
    75.9256     6146
    75.9913     5847
    76.0569     5968
    76.1226     6188
    76.1882     6028
    76.2539     6192
    76.3195     5901
    76.3852     6022
    76.4508     5934
    76.5165     6396
    76.5821     5934
    76.6478     5939
    76.7134     6000
    76.7791     6275
    76.8447     6065
    76.9104     6582
    76.9760     6932
    77.0417     8397
    77.1073     7217
    77.1730     6617
    77.2386     6979
    77.3043     6856
    77.3699     6284
    77.4356     6280
    77.5013     6535
    77.5669     6681
    77.6326     6153
    77.6982     6505
    77.7639     6844
    77.8295     6241
    77.8952     5965
    77.9608     6074
    78.0265     6023
    78.0921     5990
    78.1578     5867
    78.2234     5811
    78.2891     5898
    78.3547     5940
    78.4204     5921
    78.4860     5895
    78.5517     5976
    78.6173     6043
    78.6830     5859
    78.7486     5859
    78.8143     5988
    78.8799     6111
    78.9456     6007
    79.0112     6031
    79.0769     6079
    79.1425     6173
    79.2082     6359
    79.2738     6627
    79.3395     6923
    79.4051     6618
    79.4708     6345
    79.5364     6676
    79.6021     6532
    79.6677     6308
    79.7334     6321
    79.7990     6523
    79.8647     7054
    79.9304     7005
    79.9960     6391
    80.0617     6294
    80.1273     6721
    80.1930     6283
    80.2586     6286
    80.3243     6136
    80.3899     5883
    80.4556     5856
    80.5212     6187
    80.5869     6319
    80.6525     6211
    80.7182     5930
    80.7838     6139
    80.8495     6424
    80.9151     6677
    80.9808     6405
    81.0464     6496
    81.1121     6764
    81.1777     6614
    81.2434     6478
    81.3090     6590
    81.3747     6299
    81.4403     6123
    81.5060     6367
    81.5716     6892
    81.6373     6883
    81.7029     6572
    81.7686     6414
    81.8342     6651
    81.8999     6502
    81.9655     6133
    82.0312     6106
    82.0968     5989
    82.1625     6033
    82.2281     5886
    82.2938     5762
    82.3595     6124
    82.4251     6183
    82.4908     5983
    82.5564     6029
    82.6221     6303
    82.6877     6466
    82.7534     5992
    82.8190     6037
    82.8847     6322
    82.9503     6691
    83.0160     6334
    83.0816     6377
    83.1473     6720
    83.2129     6447
    83.2786     6150
    83.3442     6007
    83.4099     6193
    83.4755     5994
    83.5412     5936
    83.6068     5714
    83.6725     5800
    83.7381     5761
    83.8038     5879
    83.8694     5621
    83.9351     5642
    84.0007     5675
    84.0664     5741
    84.1320     5645
    84.1977     5755
    84.2633     5926
    84.3290     5935
    84.3946     5895
    84.4603     6072
    84.5260     5938
    84.5916     6007
    84.6573     5921
    84.7229     6029
    84.7886     6074
    84.8542     6167
    84.9199     6094
    84.9855     6348
    85.0512     6096
    85.1168     6118
    85.1825     6114
    85.2481     5947
    85.3138     5881
    85.3794     5890
    85.4451     5920
    85.5107     5806
    85.5764     5784
    85.6420     5754
    85.7077     5876
    85.7733     5973
    85.8390     6087
    85.9046     5922
    85.9703     5881
    86.0359     5699
    86.1016     5785
    86.1672     5971
    86.2329     5847
    86.2985     5934
    86.3642     5718
    86.4298     5904
    86.4955     5974
    86.5611     6002
    86.6268     5926
    86.6925     6116
    86.7581     6285
    86.8238     6231
    86.8894     6451
    86.9551     6358
    87.0207     6312
    87.0864     6783
    87.1520     6768
    87.2177     6352
    87.2833     6502
    87.3490     6786
    87.4146     6741
    87.4803     6294
    87.5459     6079
    87.6116     6167
    87.6772     6207
    87.7429     6117
    87.8085     5955
    87.8742     6030
    87.9398     6150
    88.0055     6143
    88.0711     5964
    88.1368     5899
    88.2024     5980
    88.2681     6167
    88.3337     6588
    88.3994     6736
    88.4650     6183
    88.5307     6101
    88.5963     6162
    88.6620     6276
    88.7276     6436
    88.7933     6497
    88.8589     6269
    88.9246     5967
    88.9902     6048
    89.0559     6256
    89.1216     6483
    89.1872     6422
    89.2529     6348
    89.3185     6059
    89.3842     6228
    89.4498     6428
    89.5155     6629
    89.5811     6499
    89.6468     6220
    89.7124     6376
    89.7781     6616
    89.8437     6639
    89.9094     6771
    89.9750     6268
    90.0407     6059
    90.1063     6067
    90.1720     6123
    90.2376     5926
    90.3033     5835
    90.3689     5819
    90.4346     5791
    90.5002     5741
    90.5659     5758
    90.6315     5839
    90.6972     5837
    90.7628     5746
    90.8285     5783
    90.8941     5882
    90.9598     5775
    91.0254     5827
    91.0911     5854
    91.1567     5926
    91.2224     5846
    91.2880     5808
    91.3537     5791
    91.4193     5809
    91.4850     5700
    91.5507     6235
    91.6163     6253
    91.6820     6001
    91.7476     5967
    91.8133     6105
    91.8789     6105
    91.9446     6032
    92.0102     6409
    92.0759     6151
    92.1415     6094
    92.2072     6323
    92.2728     6712
    92.3385     6835
    92.4041     6624
    92.4698     6541
    92.5354     6108
    92.6011     6181
    92.6667     6333
    92.7324     6130
    92.7980     5976
    92.8637     5878
    92.9293     5766
    92.9950     5718
    93.0606     5727
    93.1263     5874
    93.1919     5806
    93.2576     5740
    93.3232     5917
    93.3889     5885
    93.4545     6040
    93.5202     5991
    93.5858     5761
    93.6515     6053
    93.7171     5631
    93.7828     5783
    93.8484     5872
    93.9141     5790
    93.9798     5751
    94.0454     6204
    94.1111     6354
    94.1767     6242
    94.2424     6071
    94.3080     5849
    94.3737     6065
    94.4393     6092
    94.5050     6184
    94.5706     5894
    94.6363     5677
    94.7019     5685
    94.7676     5700
    94.8332     5888
    94.8989     5883
    94.9645     6134
    95.0302     6326
    95.0958     6190
    95.1615     6102
    95.2271     6179
    95.2928     6233
    95.3584     6351
    95.4241     6440
    95.4897     6211
    95.5554     5936
    95.6210     6301
    95.6867     6390
    95.7523     5965
    95.8180     5902
    95.8836     5920
    95.9493     6064
    96.0149     6396
    96.0806     6476
    96.1463     6123
    96.2119     5952
    96.2776     5695
    96.3432     5839
    96.4089     5838
    96.4745     5722
    96.5402     5705
    96.6058     5639
    96.6715     5773
    96.7371     5733
    96.8028     5819
    96.8684     5582
    96.9341     5606
    96.9997     5574
    97.0654     5722
    97.1310     5764
    97.1967     5727
    97.2623     5850
    97.3280     5882
    97.3936     6034
    97.4593     6213
    97.5249     6275
    97.5906     6142
    97.6562     6077
    97.7219     5849
    97.7875     6111
    97.8532     6090
    97.9188     6088
    97.9845     5926
    98.0501     5873
    98.1158     5759
    98.1814     5737
    98.2471     5756
    98.3128     5746
    98.3784     5760
    98.4441     5865
    98.5097     5845
    98.5754     5694
    98.6410     5953
    98.7067     6004
    98.7723     6221
    98.8380     6068
    98.9036     6072
    98.9693     6059
    99.0349     5978
    99.1006     5789
    99.1662     5875
    99.2319     5919
    99.2975     5962
    99.3632     5819
    99.4288     5836
    99.4945     5761
    99.5601     5794
    99.6258     5612
    99.6914     5665
    99.7571     5827
    99.8227     5719
    99.8884     5837
    99.9540     5581
    99.9934     5627