File: powder_X-ray_diffraction/variable-temperature_experiments/NaNbO2F2/raw_data/160°C.XY
! Initial file:   D:\ZAKARY_OUAIL\MA_THESE\Deuxième_année_de_thèse\DRX\Affinement_DRX\Fullprof\Thermodiff3-nuit_NaNbO2F2\160°C\NaNbO2F2-Lent_160°C.xrdml
! Initial format:  58
! WAVE (A):      1.54060     1.54060     1.00000
! REM : data have been multiplied by     1.0000
! X_data : 2 Theta (deg.)
! Y_data : Intensity (arb. units)
!     X         Y
!--------------------------------------------------------------------------------
    10.0116     7751
    10.0772     7719
    10.1429     7923
    10.2086     7960
    10.2742     8034
    10.3399     7983
    10.4055     7879
    10.4712     7916
    10.5368     7807
    10.6025     7545
    10.6681     7814
    10.7338     7956
    10.7994     7709
    10.8651     8024
    10.9307     8399
    10.9964     8629
    11.0620     9116
    11.1277    11129
    11.1933    23516
    11.2590    80628
    11.3246    22026
    11.3903     8727
    11.4559     8248
    11.5216     7904
    11.5872     8027
    11.6529     7805
    11.7185     7989
    11.7842     8216
    11.8498     8119
    11.9155     8241
    11.9811     8174
    12.0468     8114
    12.1124     8217
    12.1781     8049
    12.2437     8168
    12.3094     8217
    12.3750     8102
    12.4407     8410
    12.5063     8334
    12.5720     8178
    12.6377     8138
    12.7033     8194
    12.7690     8140
    12.8346     8201
    12.9003     8133
    12.9659     7942
    13.0316     8228
    13.0972     8082
    13.1629     7976
    13.2285     8022
    13.2942     8034
    13.3598     7859
    13.4255     8098
    13.4911     8055
    13.5568     7729
    13.6224     7961
    13.6881     8035
    13.7537     8276
    13.8194     8070
    13.8850     7994
    13.9507     8032
    14.0163     7896
    14.0820     8143
    14.1476     7922
    14.2133     8095
    14.2789     8081
    14.3446     7993
    14.4102     7949
    14.4759     8726
    14.5415     9806
    14.6072     8499
    14.6728     8023
    14.7385     7942
    14.8041     7837
    14.8698     7985
    14.9355     7836
    15.0011     7896
    15.0668     7923
    15.1324     7768
    15.1981     7820
    15.2637     7695
    15.3294     7968
    15.3950     7747
    15.4607     7767
    15.5263     7732
    15.5920     7806
    15.6576     7789
    15.7233     7983
    15.7889     7787
    15.8546     7742
    15.9202     7556
    15.9859     7863
    16.0515     8066
    16.1172     7831
    16.1828     7592
    16.2485     7644
    16.3141     7503
    16.3798     7798
    16.4454     7774
    16.5111     7868
    16.5767     7794
    16.6424     7528
    16.7080     7625
    16.7737     8110
    16.8393     8092
    16.9050     7769
    16.9706     7515
    17.0363     7641
    17.1019     7643
    17.1676     7605
    17.2333     7553
    17.2989     7637
    17.3646     7665
    17.4302     7374
    17.4959     7534
    17.5615     7385
    17.6272     7555
    17.6928     7651
    17.7585     7456
    17.8241     7261
    17.8898     7460
    17.9554     7653
    18.0211     7450
    18.0867     7241
    18.1524     7432
    18.2180     7427
    18.2837     7484
    18.3493     7315
    18.4150     7183
    18.4806     7198
    18.5463     7362
    18.6119     7256
    18.6776     7187
    18.7432     7228
    18.8089     7199
    18.8745     7241
    18.9402     7086
    19.0058     7270
    19.0715     7245
    19.1371     7491
    19.2028     7611
    19.2684     7605
    19.3341     7526
    19.3997     7577
    19.4654     7722
    19.5311     7766
    19.5967     8032
    19.6624     8594
    19.7280    10229
    19.7937    24675
    19.8593    94719
    19.9250    51372
    19.9906    12019
    20.0563     8872
    20.1219     7996
    20.1876     7789
    20.2532     7901
    20.3189     7542
    20.3845     7543
    20.4502     7614
    20.5158     7606
    20.5815     7674
    20.6471     7649
    20.7128     7440
    20.7784     7464
    20.8441     7438
    20.9097     7637
    20.9754     7539
    21.0410     7396
    21.1067     7353
    21.1723     7573
    21.2380     7572
    21.3036     7406
    21.3693     7501
    21.4349     7464
    21.5006     7572
    21.5662     7524
    21.6319     7490
    21.6975     7471
    21.7632     7556
    21.8288     7505
    21.8945     7622
    21.9602     7742
    22.0258     7474
    22.0915     7425
    22.1571     7535
    22.2228     7502
    22.2884     7569
    22.3541     7605
    22.4197     7863
    22.4854     8119
    22.5510    11581
    22.6167    34089
    22.6823    21533
    22.7480     8842
    22.8136     7749
    22.8793     7733
    22.9449     7538
    23.0106     7465
    23.0762     7342
    23.1419     7353
    23.2075     7642
    23.2732     7743
    23.3388     7560
    23.4045     7482
    23.4701     7485
    23.5358     7666
    23.6014     7743
    23.6671     7950
    23.7327     8997
    23.7984    23980
    23.8640    23130
    23.9297    11275
    23.9953     8795
    24.0610    11384
    24.1266    38260
    24.1923    26101
    24.2580     9757
    24.3236     8085
    24.3893     8029
    24.4549     7681
    24.5206     7521
    24.5862     7451
    24.6519     7374
    24.7175     7509
    24.7832     7454
    24.8488     7257
    24.9145     7310
    24.9801     7239
    25.0458     7555
    25.1114     7347
    25.1771     7353
    25.2427     7485
    25.3084     7532
    25.3740     7372
    25.4397     7138
    25.5053     7443
    25.5710     7396
    25.6366     7230
    25.7023     7411
    25.7679     7284
    25.8336     7273
    25.8992     7154
    25.9649     7324
    26.0305     7406
    26.0962     7126
    26.1618     7312
    26.2275     7236
    26.2931     7094
    26.3588     7330
    26.4244     7185
    26.4901     7031
    26.5558     7134
    26.6214     7307
    26.6871     7202
    26.7527     7110
    26.8184     7153
    26.8840     7077
    26.9497     7070
    27.0153     7333
    27.0810     7369
    27.1466     7151
    27.2123     7709
    27.2779     7497
    27.3436     7388
    27.4092     7439
    27.4749     7318
    27.5405     7431
    27.6062     7439
    27.6718     7757
    27.7375     8318
    27.8031     8894
    27.8688    10675
    27.9344    19257
    28.0001    82548
    28.0657    63138
    28.1314    24784
    28.1970    10546
    28.2627     8585
    28.3283     7895
    28.3940     7736
    28.4596     7880
    28.5253     9134
    28.5909     8413
    28.6566     7804
    28.7222     7595
    28.7879     7754
    28.8536     8413
    28.9192     9464
    28.9849    33957
    29.0505    26258
    29.1162    14798
    29.1818     8749
    29.2475    11761
    29.3131    16719
    29.3788    13190
    29.4444     9049
    29.5101     7646
    29.5757     7239
    29.6414     7178
    29.7070     7177
    29.7727     7040
    29.8383     7100
    29.9040     7048
    29.9696     6962
    30.0353     7007
    30.1009     7036
    30.1666     6991
    30.2322     6995
    30.2979     6922
    30.3635     6915
    30.4292     7146
    30.4948     6991
    30.5605     6950
    30.6261     6914
    30.6918     6905
    30.7574     6970
    30.8231     7042
    30.8887     6737
    30.9544     6845
    31.0200     6842
    31.0857     6735
    31.1514     6855
    31.2170     6887
    31.2827     6925
    31.3483     6895
    31.4140     6763
    31.4796     6950
    31.5453     6585
    31.6109     6664
    31.6766     6791
    31.7422     6669
    31.8079     6756
    31.8735     6712
    31.9392     6821
    32.0048     6885
    32.0705     6940
    32.1361     6946
    32.2018     6861
    32.2674     6988
    32.3331     6946
    32.3987     6933
    32.4644     6864
    32.5300     6890
    32.5957     6949
    32.6613     7144
    32.7270     6895
    32.7926     7293
    32.8583     7521
    32.9239    11177
    32.9896    17759
    33.0552    20494
    33.1209    14336
    33.1865     8067
    33.2522     7230
    33.3178     7059
    33.3835     7026
    33.4492     6974
    33.5148     7096
    33.5805     7044
    33.6461     7986
    33.7118    13513
    33.7774    11792
    33.8431    10078
    33.9087     7514
    33.9744     7847
    34.0400     7469
    34.1057     7296
    34.1713     9535
    34.2370    12232
    34.3026    10481
    34.3683     7243
    34.4339     6999
    34.4996     6829
    34.5652     6864
    34.6309     6800
    34.6965     6824
    34.7622     6939
    34.8278     7105
    34.8935     9165
    34.9591    10487
    35.0248     9554
    35.0904     7329
    35.1561     7465
    35.2217     6983
    35.2874     6705
    35.3530     6681
    35.4187     6547
    35.4843     6701
    35.5500     6639
    35.6156     6629
    35.6813     6529
    35.7470     6524
    35.8126     6669
    35.8783     6523
    35.9439     6600
    36.0096     6364
    36.0752     6654
    36.1409     6763
    36.2065     6741
    36.2722     6595
    36.3378     6647
    36.4035     6643
    36.4691     8956
    36.5348     8382
    36.6004     8334
    36.6661     6634
    36.7317     6710
    36.7974     6786
    36.8630     6634
    36.9287     6396
    36.9943     6561
    37.0600     6562
    37.1256     6543
    37.1913     6470
    37.2569     6586
    37.3226     6616
    37.3882     6538
    37.4539     6561
    37.5195     7059
    37.5852     7608
    37.6508     7821
    37.7165    11294
    37.7821    11087
    37.8478    10723
    37.9134     8308
    37.9791     6933
    38.0448     6731
    38.1104     6664
    38.1761     6614
    38.2417     6589
    38.3074     6634
    38.3730     6455
    38.4387     6435
    38.5043     6574
    38.5700     6441
    38.6356     6478
    38.7013     6358
    38.7669     6534
    38.8326     6447
    38.8982     6520
    38.9639     6401
    39.0295     6750
    39.0952     6710
    39.1608     6646
    39.2265     8623
    39.2921     7927
    39.3578     8079
    39.4234     6725
    39.4891     6522
    39.5547     6246
    39.6204     6579
    39.6860     6500
    39.7517     6521
    39.8173     6561
    39.8830     6532
    39.9486     6520
    40.0143     6667
    40.0799     6485
    40.1456     6830
    40.2112     7622
    40.2769     7470
    40.3425     9633
    40.4082     8225
    40.4739     7781
    40.5395     6680
    40.6052     6423
    40.6708     6546
    40.7365     6498
    40.8021     6550
    40.8678     6447
    40.9334     6574
    40.9991     6631
    41.0647     8083
    41.1304     8406
    41.1960    11996
    41.2617    11198
    41.3273     9649
    41.3930     7889
    41.4586     6707
    41.5243     6592
    41.5899     6423
    41.6556     6390
    41.7212     6404
    41.7869     6358
    41.8525     6340
    41.9182     6387
    41.9838     6318
    42.0495     6459
    42.1151     6527
    42.1808     6477
    42.2464     6371
    42.3121     6360
    42.3777     6459
    42.4434     6249
    42.5090     6252
    42.5747     6375
    42.6404     6415
    42.7060     6206
    42.7717     6254
    42.8373     6340
    42.9030     6273
    42.9686     6518
    43.0343     6417
    43.0999     6417
    43.1656     6348
    43.2312     6557
    43.2969     6520
    43.3625     6613
    43.4282     6285
    43.4938     6336
    43.5595     6741
    43.6251     7897
    43.6908     7101
    43.7564     7188
    43.8221     6632
    43.8877     6314
    43.9534     6457
    44.0190     6196
    44.0847     6408
    44.1503     6767
    44.2160     6665
    44.2816     6671
    44.3473     6357
    44.4129     6424
    44.4786     6648
    44.5442     6754
    44.6099     7742
    44.6755    12666
    44.7412    10205
    44.8068     9931
    44.8725     7548
    44.9381     6653
    45.0038     6368
    45.0695     6380
    45.1351     6316
    45.2008     6312
    45.2664     6352
    45.3321     6364
    45.3977     6448
    45.4634     6515
    45.5290     6262
    45.5947     6299
    45.6603     6396
    45.7260     6435
    45.7916     6468
    45.8573     6420
    45.9229     6585
    45.9886     6836
    46.0542     7039
    46.1199     9855
    46.1855    19987
    46.2512    11601
    46.3168    13840
    46.3825     7858
    46.4481     7163
    46.5138     6725
    46.5794     6477
    46.6451     6682
    46.7107     6481
    46.7764     6569
    46.8420     6460
    46.9077     6401
    46.9733     6423
    47.0390     6405
    47.1046     6385
    47.1703     6574
    47.2359     6228
    47.3016     6604
    47.3673     6594
    47.4329     6945
    47.4986     8614
    47.5642    10501
    47.6299    13185
    47.6955     9169
    47.7612     9308
    47.8268     7124
    47.8925     6833
    47.9581     6999
    48.0238     7138
    48.0894     7221
    48.1551     8881
    48.2207    16674
    48.2864    14812
    48.3520    12730
    48.4177    10298
    48.4833     7370
    48.5490     6822
    48.6146     6530
    48.6803     6869
    48.7459     7827
    48.8116     7696
    48.8772     7905
    48.9429     7512
    49.0085     7045
    49.0742     7038
    49.1398     7198
    49.2055     7892
    49.2711    13514
    49.3368    13330
    49.4024    13219
    49.4681    11776
    49.5337     8541
    49.5994     7849
    49.6651     6811
    49.7307     6934
    49.7964     6844
    49.8620     7505
    49.9277    10530
    49.9933    19409
    50.0590    11155
    50.1246    13325
    50.1903     8411
    50.2559     7059
    50.3216     6498
    50.3872     6593
    50.4529     6712
    50.5185     6990
    50.5842     7703
    50.6498     8437
    50.7155     8227
    50.7811     9189
    50.8468     9118
    50.9124     7713
    50.9781     7571
    51.0437     6852
    51.1094     6403
    51.1750     6559
    51.2407     6551
    51.3063     6568
    51.3720     6445
    51.4376     6456
    51.5033     6493
    51.5689     6664
    51.6346     6890
    51.7002     9159
    51.7659    14314
    51.8315     9559
    51.8972    11611
    51.9628     8874
    52.0285     7026
    52.0942     6940
    52.1598     6498
    52.2255     6421
    52.2911     6515
    52.3568     6305
    52.4224     6567
    52.4881     6402
    52.5537     6184
    52.6194     6506
    52.6850     8138
    52.7507     6999
    52.8163     7206
    52.8820     6777
    52.9476     6424
    53.0133     6396
    53.0789     6397
    53.1446     6318
    53.2102     6351
    53.2759     6328
    53.3415     6515
    53.4072     6378
    53.4728     6454
    53.5385     6454
    53.6041     6295
    53.6698     6216
    53.7354     6274
    53.8011     6353
    53.8667     6182
    53.9324     6306
    53.9980     6287
    54.0637     6192
    54.1293     6248
    54.1950     6169
    54.2607     6041
    54.3263     6205
    54.3920     6321
    54.4576     6410
    54.5233     6185
    54.5889     6245
    54.6546     6358
    54.7202     6119
    54.7859     6231
    54.8515     6110
    54.9172     6392
    54.9828     6432
    55.0485     6273
    55.1141     6388
    55.1798     6477
    55.2454     6376
    55.3111     6247
    55.3767     6349
    55.4424     6550
    55.5080     7870
    55.5737     7624
    55.6393     7264
    55.7050     7706
    55.7706     7783
    55.8363     9926
    55.9019    12556
    55.9676     8866
    56.0332     9713
    56.0989     8020
    56.1645     7247
    56.2302     6873
    56.2958     6676
    56.3615     6932
    56.4271     8750
    56.4928     8142
    56.5584     7511
    56.6241     8451
    56.6898     7545
    56.7554    10329
    56.8211     8774
    56.8867     7845
    56.9524     8062
    57.0180     7251
    57.0837     6880
    57.1493     6485
    57.2150     6740
    57.2806     6602
    57.3463     6473
    57.4119     6430
    57.4776     6382
    57.5432     6414
    57.6089     6397
    57.6745     6428
    57.7402     6850
    57.8058     7123
    57.8715     9235
    57.9371    10073
    58.0028    10615
    58.0684     9459
    58.1341     8341
    58.1997     7454
    58.2654     6598
    58.3310     6377
    58.3967     6388
    58.4623     6320
    58.5280     6217
    58.5936     6576
    58.6593     6940
    58.7249     7896
    58.7906     7465
    58.8562     8286
    58.9219     9365
    58.9876     8603
    59.0532    11390
    59.1189    10836
    59.1845     9299
    59.2502     8996
    59.3158     9394
    59.3815     9686
    59.4471     7540
    59.5128     8139
    59.5784     6985
    59.6441     6440
    59.7097     6380
    59.7754     6431
    59.8410     6551
    59.9067     6416
    59.9723     7090
    60.0380    10217
    60.1036    10958
    60.1693     7994
    60.2349     9312
    60.3006     7384
    60.3662     6424
    60.4319     6552
    60.4975     6361
    60.5632     6490
    60.6288     7083
    60.6945     8936
    60.7601     7411
    60.8258     7698
    60.8914     7558
    60.9571     6731
    61.0227     6545
    61.0884     6536
    61.1540     6622
    61.2197     6810
    61.2854     7849
    61.3510    12966
    61.4167    12621
    61.4823     9213
    61.5480    10633
    61.6136     8547
    61.6793     8125
    61.7449     7209
    61.8106     6757
    61.8762     6862
    61.9419     6199
    62.0075     6273
    62.0732     6211
    62.1388     6096
    62.2045     6147
    62.2701     6162
    62.3358     6091
    62.4014     6156
    62.4671     6314
    62.5327     6205
    62.5984     5999
    62.6640     6096
    62.7297     5947
    62.7953     6104
    62.8610     6187
    62.9266     6108
    62.9923     6465
    63.0579     6017
    63.1236     6215
    63.1892     6121
    63.2549     6204
    63.3205     6354
    63.3862     6972
    63.4518     7414
    63.5175     7488
    63.5831     8181
    63.6488     6936
    63.7145     7005
    63.7801     6891
    63.8458     6319
    63.9114     6148
    63.9771     6171
    64.0427     6182
    64.1084     6126
    64.1740     6239
    64.2397     5963
    64.3053     6170
    64.3710     6234
    64.4366     6564
    64.5023     7165
    64.5679     6626
    64.6336     6478
    64.6992     6744
    64.7649     6229
    64.8305     6181
    64.8962     6257
    64.9618     6044
    65.0275     6026
    65.0931     6118
    65.1588     6093
    65.2244     6229
    65.2901     6013
    65.3557     6060
    65.4214     6060
    65.4870     6216
    65.5527     6058
    65.6183     5992
    65.6840     6013
    65.7496     5944
    65.8153     5917
    65.8810     5905
    65.9466     5842
    66.0123     5959
    66.0779     6030
    66.1436     6013
    66.2092     5899
    66.2749     6035
    66.3405     6111
    66.4062     5800
    66.4718     5876
    66.5375     6242
    66.6031     6250
    66.6688     6030
    66.7344     6055
    66.8001     5994
    66.8657     6004
    66.9314     6017
    66.9970     6044
    67.0627     6003
    67.1283     5976
    67.1940     5986
    67.2596     5892
    67.3253     6150
    67.3909     6253
    67.4566     6077
    67.5222     6039
    67.5879     5998
    67.6535     6072
    67.7192     5971
    67.7848     5991
    67.8505     5933
    67.9161     5948
    67.9818     6069
    68.0474     5884
    68.1131     5815
    68.1787     6022
    68.2444     6100
    68.3101     6077
    68.3757     6030
    68.4414     5858
    68.5070     6057
    68.5727     6075
    68.6383     5992
    68.7040     5958
    68.7696     6003
    68.8353     6044
    68.9009     6136
    68.9666     6334
    69.0322     6531
    69.0979     7064
    69.1635     7283
    69.2292     7104
    69.2948     8650
    69.3605     7463
    69.4261     6845
    69.4918     7463
    69.5574     8034
    69.6231     7749
    69.6887     6822
    69.7544     7068
    69.8200     7495
    69.8857     7941
    69.9513     6613
    70.0170     6256
    70.0826     6812
    70.1483     6096
    70.2139     6028
    70.2796     6160
    70.3452     6199
    70.4109     6180
    70.4765     6299
    70.5422     6277
    70.6078     6274
    70.6735     6495
    70.7392     6730
    70.8048     6806
    70.8705     6581
    70.9361     6609
    71.0018     6284
    71.0674     6310
    71.1331     6316
    71.1987     5954
    71.2644     5998
    71.3300     6190
    71.3957     5914
    71.4613     6089
    71.5270     6006
    71.5926     6087
    71.6583     6074
    71.7239     6063
    71.7896     6354
    71.8552     6423
    71.9209     6431
    71.9865     7176
    72.0522     8474
    72.1178     7854
    72.1835     6887
    72.2491     7036
    72.3148     6931
    72.3804     6580
    72.4461     6016
    72.5117     6145
    72.5774     5902
    72.6430     6235
    72.7087     6545
    72.7743     6340
    72.8400     6082
    72.9057     6282
    72.9713     6111
    73.0370     6033
    73.1026     6228
    73.1683     6163
    73.2339     5937
    73.2996     6182
    73.3652     6321
    73.4309     7073
    73.4965     7177
    73.5622     6833
    73.6278     6418
    73.6935     6773
    73.7591     6476
    73.8248     6105
    73.8904     5926
    73.9561     6154
    74.0217     6146
    74.0874     6238
    74.1530     6067
    74.2187     6148
    74.2843     6812
    74.3500     6955
    74.4156     7749
    74.4813     7498
    74.5469     6785
    74.6126     6760
    74.6782     6757
    74.7439     6153
    74.8095     6092
    74.8752     5999
    74.9408     6096
    75.0065     6004
    75.0722     5709
    75.1378     5783
    75.2035     5936
    75.2691     5935
    75.3348     5659
    75.4004     5749
    75.4661     5761
    75.5317     5774
    75.5974     5796
    75.6630     5843
    75.7287     5868
    75.7943     5956
    75.8600     6165
    75.9256     6247
    75.9913     6135
    76.0569     6075
    76.1226     6165
    76.1882     5980
    76.2539     5963
    76.3195     6072
    76.3852     6117
    76.4508     6138
    76.5165     6219
    76.5821     5908
    76.6478     6001
    76.7134     6367
    76.7791     6236
    76.8447     6429
    76.9104     7224
    76.9760     8021
    77.0417     6985
    77.1073     6597
    77.1730     6601
    77.2386     6963
    77.3043     6193
    77.3699     6222
    77.4356     6160
    77.5013     6405
    77.5669     6662
    77.6326     6495
    77.6982     6541
    77.7639     6365
    77.8295     6048
    77.8952     6251
    77.9608     6014
    78.0265     5945
    78.0921     5793
    78.1578     5727
    78.2234     5811
    78.2891     5904
    78.3547     5813
    78.4204     5932
    78.4860     5748
    78.5517     6007
    78.6173     5669
    78.6830     6105
    78.7486     5997
    78.8143     6077
    78.8799     6082
    78.9456     6011
    79.0112     6056
    79.0769     6312
    79.1425     6831
    79.2082     7240
    79.2738     6408
    79.3395     6323
    79.4051     6806
    79.4708     6571
    79.5364     6225
    79.6021     6087
    79.6677     6220
    79.7334     6538
    79.7990     7197
    79.8647     6693
    79.9304     6429
    79.9960     6493
    80.0617     6461
    80.1273     6326
    80.1930     6356
    80.2586     6040
    80.3243     6068
    80.3899     6040
    80.4556     5985
    80.5212     6250
    80.5869     6292
    80.6525     6211
    80.7182     6356
    80.7838     6625
    80.8495     6761
    80.9151     6571
    80.9808     6822
    81.0464     6728
    81.1121     6408
    81.1777     6416
    81.2434     6444
    81.3090     6329
    81.3747     6362
    81.4403     6262
    81.5060     6813
    81.5716     6843
    81.6373     6356
    81.7029     6302
    81.7686     6287
    81.8342     6404
    81.8999     6012
    81.9655     6071
    82.0312     5966
    82.0968     6112
    82.1625     5865
    82.2281     5870
    82.2938     5929
    82.3595     6029
    82.4251     6145
    82.4908     6228
    82.5564     6322
    82.6221     6239
    82.6877     6319
    82.7534     6293
    82.8190     6447
    82.8847     6115
    82.9503     6104
    83.0160     6304
    83.0816     6670
    83.1473     6364
    83.2129     6053
    83.2786     6070
    83.3442     6225
    83.4099     6110
    83.4755     5859
    83.5412     5857
    83.6068     5924
    83.6725     6035
    83.7381     5746
    83.8038     5748
    83.8694     5800
    83.9351     5847
    84.0007     5837
    84.0664     5814
    84.1320     5851
    84.1977     5947
    84.2633     5665
    84.3290     6101
    84.3946     6067
    84.4603     6047
    84.5260     5943
    84.5916     6052
    84.6573     6239
    84.7229     6244
    84.7886     6210
    84.8542     6358
    84.9199     6215
    84.9855     6245
    85.0512     6013
    85.1168     6035
    85.1825     5931
    85.2481     5778
    85.3138     5783
    85.3794     5945
    85.4451     6023
    85.5107     5753
    85.5764     5922
    85.6420     5976
    85.7077     5901
    85.7733     5774
    85.8390     6226
    85.9046     5976
    85.9703     5818
    86.0359     5898
    86.1016     5997
    86.1672     5887
    86.2329     5788
    86.2985     5801
    86.3642     5600
    86.4298     5853
    86.4955     5920
    86.5611     5991
    86.6268     6110
    86.6925     6133
    86.7581     6311
    86.8238     6426
    86.8894     6592
    86.9551     6598
    87.0207     6780
    87.0864     6270
    87.1520     6446
    87.2177     6719
    87.2833     6852
    87.3490     6432
    87.4146     6127
    87.4803     6151
    87.5459     6008
    87.6116     6100
    87.6772     5989
    87.7429     5889
    87.8085     5828
    87.8742     5920
    87.9398     5956
    88.0055     5850
    88.0711     6024
    88.1368     6185
    88.2024     6491
    88.2681     6689
    88.3337     6397
    88.3994     6019
    88.4650     6157
    88.5307     6449
    88.5963     6365
    88.6620     6058
    88.7276     6366
    88.7933     6109
    88.8589     6014
    88.9246     6111
    88.9902     6483
    89.0559     6341
    89.1216     6314
    89.1872     6343
    89.2529     6274
    89.3185     6038
    89.3842     6043
    89.4498     6416
    89.5155     6834
    89.5811     6609
    89.6468     6535
    89.7124     6397
    89.7781     6612
    89.8437     6876
    89.9094     6741
    89.9750     6107
    90.0407     6069
    90.1063     6214
    90.1720     6242
    90.2376     5893
    90.3033     5730
    90.3689     5623
    90.4346     5628
    90.5002     5573
    90.5659     5786
    90.6315     5827
    90.6972     5732
    90.7628     5675
    90.8285     5718
    90.8941     5766
    90.9598     5922
    91.0254     5765
    91.0911     5858
    91.1567     5777
    91.2224     5868
    91.2880     6010
    91.3537     5956
    91.4193     6111
    91.4850     6124
    91.5507     6147
    91.6163     5998
    91.6820     6032
    91.7476     6121
    91.8133     6259
    91.8789     6322
    91.9446     5947
    92.0102     6032
    92.0759     6409
    92.1415     6616
    92.2072     6759
    92.2728     6628
    92.3385     6549
    92.4041     6349
    92.4698     6355
    92.5354     6111
    92.6011     6240
    92.6667     6318
    92.7324     5977
    92.7980     5954
    92.8637     5633
    92.9293     5850
    92.9950     5806
    93.0606     5836
    93.1263     6071
    93.1919     5851
    93.2576     5865
    93.3232     5691
    93.3889     5795
    93.4545     5862
    93.5202     5987
    93.5858     5707
    93.6515     5812
    93.7171     5844
    93.7828     5870
    93.8484     6008
    93.9141     6168
    93.9798     6500
    94.0454     6343
    94.1111     5939
    94.1767     6108
    94.2424     6005
    94.3080     5978
    94.3737     5920
    94.4393     5811
    94.5050     5792
    94.5706     5855
    94.6363     5754
    94.7019     6003
    94.7676     6156
    94.8332     6364
    94.8989     6323
    94.9645     6192
    95.0302     6018
    95.0958     6190
    95.1615     6101
    95.2271     6362
    95.2928     6267
    95.3584     6240
    95.4241     6037
    95.4897     6130
    95.5554     6613
    95.6210     6381
    95.6867     5900
    95.7523     5910
    95.8180     6039
    95.8836     6272
    95.9493     6246
    96.0149     6141
    96.0806     6067
    96.1463     5876
    96.2119     5969
    96.2776     5945
    96.3432     5814
    96.4089     5849
    96.4745     5776
    96.5402     5591
    96.6058     5693
    96.6715     5539
    96.7371     5729
    96.8028     5756
    96.8684     5692
    96.9341     5811
    96.9997     5858
    97.0654     5841
    97.1310     5851
    97.1967     5973
    97.2623     5901
    97.3280     6074
    97.3936     6155
    97.4593     5968
    97.5249     5976
    97.5906     6282
    97.6562     6298
    97.7219     6163
    97.7875     5836
    97.8532     5678
    97.9188     5972
    97.9845     5806
    98.0501     6014
    98.1158     5757
    98.1814     5826
    98.2471     5705
    98.3128     5817
    98.3784     5854
    98.4441     5972
    98.5097     5787
    98.5754     5842
    98.6410     5992
    98.7067     6128
    98.7723     6045
    98.8380     6284
    98.9036     6059
    98.9693     5770
    99.0349     6000
    99.1006     6001
    99.1662     5857
    99.2319     5848
    99.2975     5965
    99.3632     5648
    99.4288     5710
    99.4945     5566
    99.5601     5665
    99.6258     5780
    99.6914     5794
    99.7571     5726
    99.8227     5746
    99.8884     5551
    99.9540     5753
    99.9934     5661