File: powder_X-ray_diffraction/variable-temperature_experiments/NaNbO2F2/raw_data/200°C.XY
! Initial file:   D:\ZAKARY_OUAIL\MA_THESE\Deuxième_année_de_thèse\DRX\Affinement_DRX\Fullprof\Thermodiff3-nuit_NaNbO2F2\200°C\NaNbO2F2-Lent_200°C.xrdml
! Initial format:  58
! WAVE (A):      1.54060     1.54060     1.00000
! REM : data have been multiplied by     1.0000
! X_data : 2 Theta (deg.)
! Y_data : Intensity (arb. units)
!     X         Y
!--------------------------------------------------------------------------------
    10.0116     7637
    10.0772     7683
    10.1429     8027
    10.2086     7625
    10.2742     7775
    10.3399     7653
    10.4055     7735
    10.4712     7498
    10.5368     7575
    10.6025     7536
    10.6681     7716
    10.7338     7661
    10.7994     7699
    10.8651     8029
    10.9307     8238
    10.9964     8254
    11.0620     8739
    11.1277    11337
    11.1933    26266
    11.2590    78960
    11.3246    18578
    11.3903     8835
    11.4559     8266
    11.5216     7871
    11.5872     7795
    11.6529     7677
    11.7185     7897
    11.7842     7944
    11.8498     7942
    11.9155     7984
    11.9811     7961
    12.0468     8068
    12.1124     8160
    12.1781     8161
    12.2437     8269
    12.3094     8185
    12.3750     8136
    12.4407     8080
    12.5063     8104
    12.5720     8173
    12.6377     8015
    12.7033     8061
    12.7690     8095
    12.8346     7866
    12.9003     7827
    12.9659     8068
    13.0316     7950
    13.0972     8127
    13.1629     8127
    13.2285     8058
    13.2942     8031
    13.3598     7861
    13.4255     8065
    13.4911     7759
    13.5568     7960
    13.6224     7937
    13.6881     8210
    13.7537     8001
    13.8194     7839
    13.8850     7982
    13.9507     7988
    14.0163     7971
    14.0820     7937
    14.1476     8218
    14.2133     7722
    14.2789     7742
    14.3446     7838
    14.4102     8026
    14.4759     8701
    14.5415     9693
    14.6072     8249
    14.6728     7845
    14.7385     7736
    14.8041     7872
    14.8698     7770
    14.9355     7930
    15.0011     7734
    15.0668     7678
    15.1324     7950
    15.1981     7815
    15.2637     7868
    15.3294     7936
    15.3950     7743
    15.4607     7683
    15.5263     7516
    15.5920     7648
    15.6576     7588
    15.7233     7820
    15.7889     7480
    15.8546     7501
    15.9202     7725
    15.9859     7785
    16.0515     7866
    16.1172     7720
    16.1828     7680
    16.2485     7682
    16.3141     7618
    16.3798     7704
    16.4454     7620
    16.5111     7550
    16.5767     7646
    16.6424     7456
    16.7080     7707
    16.7737     8094
    16.8393     7987
    16.9050     7744
    16.9706     7631
    17.0363     7516
    17.1019     7587
    17.1676     7550
    17.2333     7505
    17.2989     7490
    17.3646     7412
    17.4302     7593
    17.4959     7539
    17.5615     7252
    17.6272     7610
    17.6928     7422
    17.7585     7327
    17.8241     7328
    17.8898     7854
    17.9554     7482
    18.0211     7475
    18.0867     7118
    18.1524     7562
    18.2180     7220
    18.2837     7264
    18.3493     7359
    18.4150     7309
    18.4806     7286
    18.5463     7287
    18.6119     7230
    18.6776     7189
    18.7432     7176
    18.8089     7049
    18.8745     7205
    18.9402     7228
    19.0058     7331
    19.0715     7296
    19.1371     7505
    19.2028     7644
    19.2684     7580
    19.3341     7600
    19.3997     7580
    19.4654     7702
    19.5311     7869
    19.5967     8180
    19.6624     8856
    19.7280    11827
    19.7937    39507
    19.8593    93602
    19.9250    32766
    19.9906    10029
    20.0563     8784
    20.1219     7718
    20.1876     7977
    20.2532     7737
    20.3189     7579
    20.3845     7626
    20.4502     7459
    20.5158     7448
    20.5815     7465
    20.6471     7288
    20.7128     7580
    20.7784     7445
    20.8441     7379
    20.9097     7470
    20.9754     7415
    21.0410     7484
    21.1067     7370
    21.1723     7313
    21.2380     7255
    21.3036     7461
    21.3693     7532
    21.4349     7475
    21.5006     7386
    21.5662     7527
    21.6319     7438
    21.6975     7325
    21.7632     7430
    21.8288     7492
    21.8945     7565
    21.9602     7401
    22.0258     7237
    22.0915     7430
    22.1571     7434
    22.2228     7537
    22.2884     7517
    22.3541     7496
    22.4197     7694
    22.4854     8376
    22.5510    14764
    22.6167    32386
    22.6823    16618
    22.7480     8296
    22.8136     7625
    22.8793     7304
    22.9449     7328
    23.0106     7413
    23.0762     7281
    23.1419     7496
    23.2075     7425
    23.2732     7484
    23.3388     7672
    23.4045     7472
    23.4701     7620
    23.5358     7616
    23.6014     7577
    23.6671     7849
    23.7327     9141
    23.7984    25445
    23.8640    22620
    23.9297    10616
    23.9953     9068
    24.0610    13834
    24.1266    37855
    24.1923    21454
    24.2580     8737
    24.3236     8071
    24.3893     8089
    24.4549     7559
    24.5206     7446
    24.5862     7347
    24.6519     7549
    24.7175     7414
    24.7832     7240
    24.8488     7196
    24.9145     7237
    24.9801     7394
    25.0458     7377
    25.1114     7420
    25.1771     7315
    25.2427     7624
    25.3084     7195
    25.3740     7275
    25.4397     7547
    25.5053     7181
    25.5710     7193
    25.6366     7324
    25.7023     7189
    25.7679     7173
    25.8336     7313
    25.8992     7376
    25.9649     7469
    26.0305     7413
    26.0962     7248
    26.1618     7308
    26.2275     7194
    26.2931     7061
    26.3588     7076
    26.4244     7299
    26.4901     7108
    26.5558     7382
    26.6214     7259
    26.6871     7284
    26.7527     7007
    26.8184     7201
    26.8840     7277
    26.9497     7208
    27.0153     7417
    27.0810     7474
    27.1466     7316
    27.2123     7530
    27.2779     7397
    27.3436     7411
    27.4092     7287
    27.4749     7383
    27.5405     7347
    27.6062     7464
    27.6718     7757
    27.7375     8486
    27.8031     9340
    27.8688    11874
    27.9344    34724
    28.0001    88336
    28.0657    52541
    28.1314    15126
    28.1970     9425
    28.2627     8262
    28.3283     7918
    28.3940     7698
    28.4596     7798
    28.5253     8945
    28.5909     8215
    28.6566     7729
    28.7222     7647
    28.7879     7760
    28.8536     8268
    28.9192    10938
    28.9849    40256
    29.0505    26218
    29.1162    11632
    29.1818     9116
    29.2475    14144
    29.3131    15677
    29.3788    12018
    29.4444     8324
    29.5101     7516
    29.5757     7365
    29.6414     7353
    29.7070     7194
    29.7727     7123
    29.8383     7162
    29.9040     7159
    29.9696     6962
    30.0353     6958
    30.1009     7214
    30.1666     7040
    30.2322     7149
    30.2979     6995
    30.3635     7072
    30.4292     6910
    30.4948     7005
    30.5605     7014
    30.6261     7053
    30.6918     7014
    30.7574     6978
    30.8231     6715
    30.8887     6979
    30.9544     7031
    31.0200     6968
    31.0857     6893
    31.1514     6825
    31.2170     6994
    31.2827     6771
    31.3483     6878
    31.4140     6845
    31.4796     7061
    31.5453     6957
    31.6109     6861
    31.6766     6696
    31.7422     6697
    31.8079     6843
    31.8735     6886
    31.9392     6750
    32.0048     6789
    32.0705     6898
    32.1361     7001
    32.2018     6809
    32.2674     6818
    32.3331     6931
    32.3987     7024
    32.4644     6908
    32.5300     6993
    32.5957     6833
    32.6613     6874
    32.7270     7137
    32.7926     7280
    32.8583     8504
    32.9239    15835
    32.9896    18256
    33.0552    16333
    33.1209    13161
    33.1865     7837
    33.2522     7088
    33.3178     7029
    33.3835     6987
    33.4492     6801
    33.5148     6954
    33.5805     7481
    33.6461    10187
    33.7118    14293
    33.7774    11155
    33.8431     7922
    33.9087     7347
    33.9744     7694
    34.0400     7709
    34.1057     7744
    34.1713    13431
    34.2370    10503
    34.3026     9132
    34.3683     7047
    34.4339     6748
    34.4996     6659
    34.5652     6677
    34.6309     6721
    34.6965     6887
    34.7622     6875
    34.8278     7801
    34.8935    11555
    34.9591     9744
    35.0248     7951
    35.0904     7468
    35.1561     6966
    35.2217     6886
    35.2874     6803
    35.3530     6666
    35.4187     6582
    35.4843     6560
    35.5500     6679
    35.6156     6469
    35.6813     6430
    35.7470     6484
    35.8126     6488
    35.8783     6529
    35.9439     6383
    36.0096     6565
    36.0752     6593
    36.1409     6917
    36.2065     6603
    36.2722     6821
    36.3378     6722
    36.4035     6727
    36.4691     8961
    36.5348     8176
    36.6004     8246
    36.6661     6807
    36.7317     6538
    36.7974     6578
    36.8630     6614
    36.9287     6530
    36.9943     6645
    37.0600     6432
    37.1256     6541
    37.1913     6604
    37.2569     6748
    37.3226     6450
    37.3882     6669
    37.4539     6808
    37.5195     7377
    37.5852     7557
    37.6508     9817
    37.7165    11165
    37.7821    11745
    37.8478     8266
    37.9134     7483
    37.9791     6649
    38.0448     6692
    38.1104     6720
    38.1761     6492
    38.2417     6673
    38.3074     6602
    38.3730     6422
    38.4387     6494
    38.5043     6365
    38.5700     6521
    38.6356     6398
    38.7013     6373
    38.7669     6484
    38.8326     6456
    38.8982     6457
    38.9639     6650
    39.0295     6418
    39.0952     6595
    39.1608     6950
    39.2265     9693
    39.2921     7590
    39.3578     7305
    39.4234     6572
    39.4891     6524
    39.5547     6618
    39.6204     6376
    39.6860     6397
    39.7517     6685
    39.8173     6547
    39.8830     6468
    39.9486     6481
    40.0143     6461
    40.0799     6373
    40.1456     6788
    40.2112     7460
    40.2769     9044
    40.3425     8981
    40.4082     8148
    40.4739     6753
    40.5395     6618
    40.6052     6498
    40.6708     6542
    40.7365     6530
    40.8021     6512
    40.8678     6493
    40.9334     6662
    40.9991     7274
    41.0647     8594
    41.1304    11424
    41.1960    11164
    41.2617    10275
    41.3273     8026
    41.3930     6858
    41.4586     6547
    41.5243     6284
    41.5899     6615
    41.6556     6639
    41.7212     6457
    41.7869     6438
    41.8525     6489
    41.9182     6636
    41.9838     6477
    42.0495     6503
    42.1151     6426
    42.1808     6484
    42.2464     6407
    42.3121     6351
    42.3777     6458
    42.4434     6372
    42.5090     6152
    42.5747     6319
    42.6404     6490
    42.7060     6459
    42.7717     6330
    42.8373     6287
    42.9030     6456
    42.9686     6220
    43.0343     6378
    43.0999     6365
    43.1656     6428
    43.2312     6251
    43.2969     6299
    43.3625     6503
    43.4282     6465
    43.4938     6585
    43.5595     7224
    43.6251     7474
    43.6908     7161
    43.7564     6819
    43.8221     6636
    43.8877     6377
    43.9534     6375
    44.0190     6395
    44.0847     6484
    44.1503     6574
    44.2160     6687
    44.2816     6433
    44.3473     6476
    44.4129     6487
    44.4786     6734
    44.5442     7574
    44.6099    12030
    44.6755    10994
    44.7412     9710
    44.8068     7853
    44.8725     6555
    44.9381     6442
    45.0038     6286
    45.0695     6270
    45.1351     6480
    45.2008     6453
    45.2664     6420
    45.3321     6278
    45.3977     6437
    45.4634     6365
    45.5290     6410
    45.5947     6231
    45.6603     6254
    45.7260     6371
    45.7916     6405
    45.8573     6677
    45.9229     6922
    45.9886     6933
    46.0542     8113
    46.1199    18037
    46.1855    13982
    46.2512    13393
    46.3168     9937
    46.3825     7193
    46.4481     6974
    46.5138     6314
    46.5794     6474
    46.6451     6650
    46.7107     6613
    46.7764     6542
    46.8420     6530
    46.9077     6465
    46.9733     6494
    47.0390     6426
    47.1046     6425
    47.1703     6595
    47.2359     6461
    47.3016     6567
    47.3673     6799
    47.4329     8338
    47.4986     8968
    47.5642    11917
    47.6299    10345
    47.6955     9489
    47.7612     7968
    47.8268     6957
    47.8925     6829
    47.9581     6918
    48.0238     7374
    48.0894     8219
    48.1551    14665
    48.2207    16834
    48.2864    12552
    48.3520    11577
    48.4177     7768
    48.4833     7011
    48.5490     6681
    48.6146     6796
    48.6803     7042
    48.7459     8149
    48.8116     7779
    48.8772     7797
    48.9429     7285
    49.0085     7263
    49.0742     7163
    49.1398     7596
    49.2055    11248
    49.2711    14639
    49.3368    11709
    49.4024    14253
    49.4681     8448
    49.5337     8591
    49.5994     6943
    49.6651     6734
    49.7307     6867
    49.7964     7187
    49.8620     8133
    49.9277    15262
    49.9933    15713
    50.0590    12032
    50.1246    11277
    50.1903     7572
    50.2559     6864
    50.3216     6739
    50.3872     6836
    50.4529     6790
    50.5185     7645
    50.5842     7658
    50.6498     8862
    50.7155     8943
    50.7811     9748
    50.8468     7937
    50.9124     7691
    50.9781     6828
    51.0437     6589
    51.1094     6486
    51.1750     6654
    51.2407     6489
    51.3063     6509
    51.3720     6404
    51.4376     6471
    51.5033     6590
    51.5689     6722
    51.6346     7364
    51.7002    12372
    51.7659    12103
    51.8315    10213
    51.8972    10720
    51.9628     7340
    52.0285     7191
    52.0942     6598
    52.1598     6601
    52.2255     6465
    52.2911     6495
    52.3568     6454
    52.4224     6424
    52.4881     6242
    52.5537     6322
    52.6194     6828
    52.6850     8242
    52.7507     6699
    52.8163     7197
    52.8820     6727
    52.9476     6397
    53.0133     6307
    53.0789     6463
    53.1446     6368
    53.2102     6326
    53.2759     6390
    53.3415     6516
    53.4072     6628
    53.4728     6303
    53.5385     6246
    53.6041     6242
    53.6698     6411
    53.7354     6158
    53.8011     6302
    53.8667     6413
    53.9324     6212
    53.9980     6253
    54.0637     6440
    54.1293     6373
    54.1950     6169
    54.2607     6366
    54.3263     6361
    54.3920     6304
    54.4576     6203
    54.5233     6250
    54.5889     6204
    54.6546     6406
    54.7202     6091
    54.7859     6273
    54.8515     6428
    54.9172     6296
    54.9828     6422
    55.0485     6235
    55.1141     6266
    55.1798     6352
    55.2454     6238
    55.3111     6401
    55.3767     6479
    55.4424     6636
    55.5080     8305
    55.5737     7595
    55.6393     7474
    55.7050     8417
    55.7706    10263
    55.8363    12202
    55.9019     8872
    55.9676     9606
    56.0332     7712
    56.0989     7375
    56.1645     6883
    56.2302     6901
    56.2958     7099
    56.3615     8572
    56.4271     8363
    56.4928     7757
    56.5584     8248
    56.6241     7721
    56.6898    10563
    56.7554     8897
    56.8211     8013
    56.8867     8269
    56.9524     7146
    57.0180     7013
    57.0837     6847
    57.1493     6727
    57.2150     6669
    57.2806     6551
    57.3463     6363
    57.4119     6201
    57.4776     6492
    57.5432     6325
    57.6089     6520
    57.6745     6548
    57.7402     6862
    57.8058     8720
    57.8715     9521
    57.9371     9913
    58.0028    10342
    58.0684     8223
    58.1341     7995
    58.1997     6875
    58.2654     6317
    58.3310     6256
    58.3967     6347
    58.4623     6550
    58.5280     6441
    58.5936     6989
    58.6593     7839
    58.7249     7398
    58.7906     8070
    58.8562     9808
    58.9219     9078
    58.9876    10515
    59.0532    10601
    59.1189     9360
    59.1845     8799
    59.2502    10054
    59.3158     9099
    59.3815     7595
    59.4471     7905
    59.5128     7093
    59.5784     6452
    59.6441     6435
    59.7097     6244
    59.7754     6512
    59.8410     6468
    59.9067     6612
    59.9723     7859
    60.0380    12318
    60.1036     8814
    60.1693     8467
    60.2349     8802
    60.3006     6857
    60.3662     6487
    60.4319     6438
    60.4975     6369
    60.5632     6857
    60.6288     8903
    60.6945     7508
    60.7601     7466
    60.8258     7603
    60.8914     6843
    60.9571     6575
    61.0227     6436
    61.0884     6558
    61.1540     6763
    61.2197     8157
    61.2854    12738
    61.3510    12339
    61.4167     9355
    61.4823    10154
    61.5480     8527
    61.6136     6993
    61.6793     7701
    61.7449     6937
    61.8106     6755
    61.8762     6996
    61.9419     6327
    62.0075     6197
    62.0732     6109
    62.1388     6276
    62.2045     6037
    62.2701     6072
    62.3358     6177
    62.4014     6196
    62.4671     6107
    62.5327     5913
    62.5984     5991
    62.6640     6051
    62.7297     6131
    62.7953     6105
    62.8610     6014
    62.9266     6362
    62.9923     6014
    63.0579     6241
    63.1236     6166
    63.1892     6347
    63.2549     6398
    63.3205     7360
    63.3862     7091
    63.4518     7058
    63.5175     8333
    63.5831     7473
    63.6488     6697
    63.7145     7362
    63.7801     6454
    63.8458     6245
    63.9114     6251
    63.9771     6045
    64.0427     6112
    64.1084     6079
    64.1740     6066
    64.2397     6017
    64.3053     6318
    64.3710     6884
    64.4366     7034
    64.5023     6595
    64.5679     6499
    64.6336     6529
    64.6992     6152
    64.7649     6168
    64.8305     6124
    64.8962     5955
    64.9618     6069
    65.0275     6206
    65.0931     6125
    65.1588     6027
    65.2244     6208
    65.2901     6168
    65.3557     6117
    65.4214     6311
    65.4870     5917
    65.5527     6072
    65.6183     6098
    65.6840     5989
    65.7496     5831
    65.8153     5905
    65.8810     5948
    65.9466     6024
    66.0123     5998
    66.0779     6021
    66.1436     6005
    66.2092     5979
    66.2749     5975
    66.3405     5954
    66.4062     5958
    66.4718     6080
    66.5375     6228
    66.6031     5922
    66.6688     5985
    66.7344     6057
    66.8001     6036
    66.8657     5855
    66.9314     6059
    66.9970     5909
    67.0627     5986
    67.1283     5902
    67.1940     5960
    67.2596     6175
    67.3253     5875
    67.3909     6053
    67.4566     5902
    67.5222     5951
    67.5879     5913
    67.6535     6092
    67.7192     5990
    67.7848     6243
    67.8505     5780
    67.9161     5871
    67.9818     5925
    68.0474     6077
    68.1131     5822
    68.1787     6105
    68.2444     6010
    68.3101     6036
    68.3757     6200
    68.4414     6121
    68.5070     6033
    68.5727     6031
    68.6383     5967
    68.7040     6168
    68.7696     5988
    68.8353     5992
    68.9009     6509
    68.9666     6814
    69.0322     7228
    69.0979     6973
    69.1635     6814
    69.2292     7876
    69.2948     8390
    69.3605     6843
    69.4261     7209
    69.4918     8701
    69.5574     8063
    69.6231     6801
    69.6887     6910
    69.7544     6849
    69.8200     6921
    69.8857     7335
    69.9513     6444
    70.0170     6419
    70.0826     6551
    70.1483     6297
    70.2139     6138
    70.2796     6103
    70.3452     6142
    70.4109     6129
    70.4765     6231
    70.5422     6242
    70.6078     6512
    70.6735     6584
    70.7392     6544
    70.8048     6550
    70.8705     6666
    70.9361     6398
    71.0018     6417
    71.0674     6238
    71.1331     6044
    71.1987     6092
    71.2644     6011
    71.3300     6023
    71.3957     5929
    71.4613     6068
    71.5270     5932
    71.5926     6222
    71.6583     6128
    71.7239     6518
    71.7896     6393
    71.8552     6395
    71.9209     7143
    71.9865     8678
    72.0522     7683
    72.1178     6943
    72.1835     7313
    72.2491     6756
    72.3148     6122
    72.3804     5996
    72.4461     6153
    72.5117     6082
    72.5774     6158
    72.6430     6685
    72.7087     6361
    72.7743     6096
    72.8400     6201
    72.9057     6310
    72.9713     6029
    73.0370     6134
    73.1026     6264
    73.1683     6102
    73.2339     6211
    73.2996     6611
    73.3652     7079
    73.4309     7059
    73.4965     6509
    73.5622     6601
    73.6278     6528
    73.6935     6540
    73.7591     6146
    73.8248     6020
    73.8904     6014
    73.9561     6206
    74.0217     6180
    74.0874     6207
    74.1530     6576
    74.2187     7082
    74.2843     7198
    74.3500     7555
    74.4156     6944
    74.4813     6775
    74.5469     6812
    74.6126     6597
    74.6782     6022
    74.7439     6062
    74.8095     6012
    74.8752     5944
    74.9408     5945
    75.0065     6023
    75.0722     5944
    75.1378     5826
    75.2035     5901
    75.2691     5882
    75.3348     6055
    75.4004     5752
    75.4661     5869
    75.5317     5880
    75.5974     5866
    75.6630     5874
    75.7287     5889
    75.7943     6130
    75.8600     6281
    75.9256     6074
    75.9913     6267
    76.0569     6263
    76.1226     5852
    76.1882     5966
    76.2539     6056
    76.3195     6037
    76.3852     5923
    76.4508     6267
    76.5165     6068
    76.5821     6050
    76.6478     6211
    76.7134     6586
    76.7791     6712
    76.8447     7325
    76.9104     7224
    76.9760     7229
    77.0417     6789
    77.1073     6574
    77.1730     6695
    77.2386     6189
    77.3043     6134
    77.3699     6126
    77.4356     6085
    77.5013     6659
    77.5669     6889
    77.6326     6428
    77.6982     6250
    77.7639     6259
    77.8295     6305
    77.8952     6112
    77.9608     5973
    78.0265     5896
    78.0921     5884
    78.1578     5626
    78.2234     5865
    78.2891     5869
    78.3547     5851
    78.4204     5979
    78.4860     5870
    78.5517     5812
    78.6173     5967
    78.6830     5997
    78.7486     5969
    78.8143     6092
    78.8799     6068
    78.9456     6261
    79.0112     6716
    79.0769     6962
    79.1425     6890
    79.2082     6396
    79.2738     6772
    79.3395     6839
    79.4051     6451
    79.4708     6052
    79.5364     6160
    79.6021     6259
    79.6677     6668
    79.7334     6823
    79.7990     6614
    79.8647     6707
    79.9304     6775
    79.9960     6622
    80.0617     6592
    80.1273     6379
    80.1930     6100
    80.2586     5954
    80.3243     6062
    80.3899     5944
    80.4556     6141
    80.5212     6112
    80.5869     6350
    80.6525     6651
    80.7182     6911
    80.7838     6770
    80.8495     6856
    80.9151     6868
    80.9808     6458
    81.0464     6439
    81.1121     6329
    81.1777     6516
    81.2434     6349
    81.3090     6370
    81.3747     6458
    81.4403     6725
    81.5060     6729
    81.5716     6363
    81.6373     6323
    81.7029     6295
    81.7686     6173
    81.8342     6205
    81.8999     5924
    81.9655     5920
    82.0312     5796
    82.0968     5861
    82.1625     5951
    82.2281     5970
    82.2938     5937
    82.3595     6407
    82.4251     6291
    82.4908     6163
    82.5564     6434
    82.6221     6294
    82.6877     6461
    82.7534     6213
    82.8190     6054
    82.8847     6242
    82.9503     6523
    83.0160     6459
    83.0816     6259
    83.1473     6138
    83.2129     5972
    83.2786     6094
    83.3442     6005
    83.4099     5938
    83.4755     5867
    83.5412     5995
    83.6068     5799
    83.6725     5749
    83.7381     5775
    83.8038     5664
    83.8694     5819
    83.9351     5749
    84.0007     5763
    84.0664     5891
    84.1320     5877
    84.1977     5752
    84.2633     6048
    84.3290     6121
    84.3946     6041
    84.4603     5808
    84.5260     6048
    84.5916     6318
    84.6573     6200
    84.7229     6160
    84.7886     6271
    84.8542     6095
    84.9199     6014
    84.9855     6005
    85.0512     6093
    85.1168     5807
    85.1825     5763
    85.2481     5833
    85.3138     5901
    85.3794     5982
    85.4451     5789
    85.5107     5940
    85.5764     5902
    85.6420     5763
    85.7077     5910
    85.7733     6151
    85.8390     6076
    85.9046     6021
    85.9703     5791
    86.0359     6116
    86.1016     5946
    86.1672     5744
    86.2329     5937
    86.2985     5979
    86.3642     5822
    86.4298     6087
    86.4955     6087
    86.5611     6069
    86.6268     6002
    86.6925     6038
    86.7581     6291
    86.8238     6886
    86.8894     7069
    86.9551     6714
    87.0207     6491
    87.0864     6786
    87.1520     6787
    87.2177     6587
    87.2833     6208
    87.3490     6165
    87.4146     6230
    87.4803     5996
    87.5459     6111
    87.6116     6055
    87.6772     6001
    87.7429     5928
    87.8085     6080
    87.8742     6006
    87.9398     6040
    88.0055     6190
    88.0711     6418
    88.1368     6799
    88.2024     6280
    88.2681     6192
    88.3337     6163
    88.3994     6227
    88.4650     6019
    88.5307     5925
    88.5963     6023
    88.6620     6335
    88.7276     6299
    88.7933     6178
    88.8589     6322
    88.9246     6536
    88.9902     6385
    89.0559     6105
    89.1216     6453
    89.1872     6261
    89.2529     6248
    89.3185     6119
    89.3842     6408
    89.4498     6710
    89.5155     6873
    89.5811     6515
    89.6468     6052
    89.7124     6435
    89.7781     6685
    89.8437     6788
    89.9094     6093
    89.9750     5927
    90.0407     5934
    90.1063     6134
    90.1720     5974
    90.2376     5856
    90.3033     5851
    90.3689     5757
    90.4346     5716
    90.5002     5880
    90.5659     5788
    90.6315     5941
    90.6972     5918
    90.7628     5871
    90.8285     5845
    90.8941     5922
    90.9598     5775
    91.0254     5881
    91.0911     5907
    91.1567     5975
    91.2224     5879
    91.2880     6056
    91.3537     6257
    91.4193     5976
    91.4850     5929
    91.5507     6203
    91.6163     5986
    91.6820     6229
    91.7476     6340
    91.8133     6235
    91.8789     6213
    91.9446     6307
    92.0102     6504
    92.0759     6542
    92.1415     6368
    92.2072     6473
    92.2728     6792
    92.3385     6543
    92.4041     6216
    92.4698     6185
    92.5354     6184
    92.6011     6180
    92.6667     5966
    92.7324     5618
    92.7980     5701
    92.8637     5927
    92.9293     6061
    92.9950     5994
    93.0606     5813
    93.1263     5974
    93.1919     5836
    93.2576     5707
    93.3232     5993
    93.3889     5793
    93.4545     5897
    93.5202     5812
    93.5858     5885
    93.6515     5963
    93.7171     5879
    93.7828     6371
    93.8484     6310
    93.9141     6297
    93.9798     6126
    94.0454     5982
    94.1111     6084
    94.1767     6011
    94.2424     5954
    94.3080     5835
    94.3737     5857
    94.4393     5740
    94.5050     5999
    94.5706     6123
    94.6363     6245
    94.7019     6470
    94.7676     6279
    94.8332     6247
    94.8989     6246
    94.9645     6300
    95.0302     6374
    95.0958     6276
    95.1615     6170
    95.2271     6177
    95.2928     6051
    95.3584     5938
    95.4241     6313
    95.4897     6413
    95.5554     6115
    95.6210     6067
    95.6867     5982
    95.7523     6320
    95.8180     6435
    95.8836     6275
    95.9493     5825
    96.0149     5911
    96.0806     5922
    96.1463     6112
    96.2119     5929
    96.2776     5794
    96.3432     5709
    96.4089     5770
    96.4745     5711
    96.5402     5860
    96.6058     5737
    96.6715     5615
    96.7371     5747
    96.8028     5928
    96.8684     5784
    96.9341     5722
    96.9997     5855
    97.0654     5881
    97.1310     6147
    97.1967     5986
    97.2623     5948
    97.3280     6000
    97.3936     5906
    97.4593     5966
    97.5249     6103
    97.5906     6241
    97.6562     6027
    97.7219     6062
    97.7875     5842
    97.8532     5876
    97.9188     5935
    97.9845     5845
    98.0501     5747
    98.1158     5763
    98.1814     5657
    98.2471     5791
    98.3128     5835
    98.3784     6121
    98.4441     5824
    98.5097     6099
    98.5754     5924
    98.6410     6130
    98.7067     6288
    98.7723     6208
    98.8380     5841
    98.9036     6035
    98.9693     5920
    99.0349     6062
    99.1006     5794
    99.1662     5779
    99.2319     5702
    99.2975     5709
    99.3632     5747
    99.4288     5735
    99.4945     5846
    99.5601     5882
    99.6258     5687
    99.6914     5692
    99.7571     5746
    99.8227     5640
    99.8884     5738
    99.9540     5651
    99.9934     5697