File: powder_X-ray_diffraction/variable-temperature_experiments/NaNbO2F2/raw_data/230°C.XY
! Initial file:   D:\ZAKARY_OUAIL\MA_THESE\Deuxième_année_de_thèse\DRX\Affinement_DRX\Fullprof\Thermodiff3-nuit_NaNbO2F2\230°C\NaNbO2F2-Lent_230°C.xrdml
! Initial format:  58
! WAVE (A):      1.54060     1.54060     1.00000
! REM : data have been multiplied by     1.0000
! X_data : 2 Theta (deg.)
! Y_data : Intensity (arb. units)
!     X         Y
!--------------------------------------------------------------------------------
    10.0116     7619
    10.0772     7560
    10.1429     7878
    10.2086     7670
    10.2742     7668
    10.3399     7662
    10.4055     7790
    10.4712     7523
    10.5368     7550
    10.6025     7446
    10.6681     7373
    10.7338     7701
    10.7994     7778
    10.8651     8093
    10.9307     7956
    10.9964     8365
    11.0620     8921
    11.1277    11663
    11.1933    28258
    11.2590    79135
    11.3246    17179
    11.3903     8754
    11.4559     8103
    11.5216     7855
    11.5872     7686
    11.6529     7847
    11.7185     7843
    11.7842     8028
    11.8498     7919
    11.9155     7991
    11.9811     7848
    12.0468     7921
    12.1124     8030
    12.1781     8152
    12.2437     8312
    12.3094     8055
    12.3750     8169
    12.4407     8151
    12.5063     7895
    12.5720     8199
    12.6377     8103
    12.7033     7851
    12.7690     8028
    12.8346     8110
    12.9003     7986
    12.9659     8000
    13.0316     8071
    13.0972     8015
    13.1629     7866
    13.2285     7858
    13.2942     8093
    13.3598     7821
    13.4255     7966
    13.4911     7865
    13.5568     7834
    13.6224     7976
    13.6881     7946
    13.7537     7950
    13.8194     7750
    13.8850     7765
    13.9507     7873
    14.0163     7796
    14.0820     7930
    14.1476     7947
    14.2133     7767
    14.2789     8053
    14.3446     7721
    14.4102     8120
    14.4759     8496
    14.5415     9533
    14.6072     8319
    14.6728     7852
    14.7385     7737
    14.8041     7648
    14.8698     7698
    14.9355     7732
    15.0011     7775
    15.0668     7792
    15.1324     7676
    15.1981     7813
    15.2637     7504
    15.3294     7883
    15.3950     7643
    15.4607     7628
    15.5263     7546
    15.5920     7690
    15.6576     7590
    15.7233     7709
    15.7889     7621
    15.8546     7547
    15.9202     7702
    15.9859     7686
    16.0515     7754
    16.1172     7633
    16.1828     7726
    16.2485     7572
    16.3141     7372
    16.3798     7576
    16.4454     7676
    16.5111     7595
    16.5767     7537
    16.6424     7683
    16.7080     7710
    16.7737     7888
    16.8393     7796
    16.9050     7542
    16.9706     7441
    17.0363     7564
    17.1019     7470
    17.1676     7570
    17.2333     7423
    17.2989     7498
    17.3646     7293
    17.4302     7556
    17.4959     7382
    17.5615     7310
    17.6272     7448
    17.6928     7166
    17.7585     7311
    17.8241     7346
    17.8898     7470
    17.9554     7359
    18.0211     7199
    18.0867     7447
    18.1524     7090
    18.2180     7565
    18.2837     7295
    18.3493     7330
    18.4150     7228
    18.4806     7500
    18.5463     7282
    18.6119     7097
    18.6776     7469
    18.7432     7147
    18.8089     7241
    18.8745     7184
    18.9402     7292
    19.0058     7369
    19.0715     7129
    19.1371     7456
    19.2028     7724
    19.2684     7524
    19.3341     7527
    19.3997     7576
    19.4654     7669
    19.5311     7759
    19.5967     8363
    19.6624     9154
    19.7280    13547
    19.7937    53626
    19.8593    83822
    19.9250    23869
    19.9906     9656
    20.0563     8510
    20.1219     8089
    20.1876     7848
    20.2532     7884
    20.3189     7411
    20.3845     7454
    20.4502     7337
    20.5158     7245
    20.5815     7498
    20.6471     7417
    20.7128     7583
    20.7784     7545
    20.8441     7584
    20.9097     7410
    20.9754     7412
    21.0410     7554
    21.1067     7433
    21.1723     7416
    21.2380     7304
    21.3036     7355
    21.3693     7459
    21.4349     7433
    21.5006     7394
    21.5662     7565
    21.6319     7337
    21.6975     7305
    21.7632     7397
    21.8288     7568
    21.8945     7490
    21.9602     7433
    22.0258     7481
    22.0915     7277
    22.1571     7259
    22.2228     7291
    22.2884     7461
    22.3541     7695
    22.4197     7581
    22.4854     8625
    22.5510    18126
    22.6167    30044
    22.6823    14314
    22.7480     8009
    22.8136     7757
    22.8793     7467
    22.9449     7311
    23.0106     7416
    23.0762     7358
    23.1419     7309
    23.2075     7526
    23.2732     7553
    23.3388     7381
    23.4045     7514
    23.4701     7681
    23.5358     7684
    23.6014     7604
    23.6671     7980
    23.7327     9382
    23.7984    26050
    23.8640    21880
    23.9297    10086
    23.9953     9215
    24.0610    18926
    24.1266    33509
    24.1923    17082
    24.2580     8467
    24.3236     7912
    24.3893     7870
    24.4549     7763
    24.5206     7556
    24.5862     7497
    24.6519     7399
    24.7175     7409
    24.7832     7273
    24.8488     7231
    24.9145     7360
    24.9801     7398
    25.0458     7417
    25.1114     7308
    25.1771     7407
    25.2427     7566
    25.3084     7109
    25.3740     7386
    25.4397     7209
    25.5053     7243
    25.5710     7207
    25.6366     7311
    25.7023     7236
    25.7679     7608
    25.8336     7373
    25.8992     7259
    25.9649     7340
    26.0305     7215
    26.0962     7334
    26.1618     7154
    26.2275     7254
    26.2931     7249
    26.3588     7106
    26.4244     7311
    26.4901     7193
    26.5558     7094
    26.6214     7300
    26.6871     7016
    26.7527     7178
    26.8184     6985
    26.8840     7212
    26.9497     7268
    27.0153     7377
    27.0810     7445
    27.1466     7578
    27.2123     7369
    27.2779     7368
    27.3436     7426
    27.4092     7499
    27.4749     7360
    27.5405     7501
    27.6062     7539
    27.6718     8027
    27.7375     8557
    27.8031     9492
    27.8688    13701
    27.9344    52288
    28.0001    78082
    28.0657    42000
    28.1314    12523
    28.1970     9378
    28.2627     8136
    28.3283     7826
    28.3940     7595
    28.4596     7753
    28.5253     8678
    28.5909     8046
    28.6566     7552
    28.7222     7764
    28.7879     7925
    28.8536     8436
    28.9192    12686
    28.9849    39267
    29.0505    25328
    29.1162    10222
    29.1818     9565
    29.2475    15624
    29.3131    14357
    29.3788    10573
    29.4444     8161
    29.5101     7371
    29.5757     7374
    29.6414     7237
    29.7070     7152
    29.7727     7166
    29.8383     7342
    29.9040     7193
    29.9696     7006
    30.0353     7239
    30.1009     6998
    30.1666     6945
    30.2322     6931
    30.2979     6974
    30.3635     7101
    30.4292     6976
    30.4948     6880
    30.5605     7016
    30.6261     6907
    30.6918     6976
    30.7574     7180
    30.8231     6980
    30.8887     6790
    30.9544     6765
    31.0200     6963
    31.0857     6859
    31.1514     6690
    31.2170     7037
    31.2827     6888
    31.3483     6816
    31.4140     6651
    31.4796     6823
    31.5453     6892
    31.6109     6779
    31.6766     6784
    31.7422     6883
    31.8079     6812
    31.8735     7038
    31.9392     7018
    32.0048     6969
    32.0705     6993
    32.1361     6853
    32.2018     6864
    32.2674     6996
    32.3331     7009
    32.3987     6941
    32.4644     6825
    32.5300     6793
    32.5957     6847
    32.6613     7015
    32.7270     7141
    32.7926     7427
    32.8583    11173
    32.9239    13883
    32.9896    19676
    33.0552    14492
    33.1209    12355
    33.1865     7539
    33.2522     7132
    33.3178     7114
    33.3835     6882
    33.4492     6989
    33.5148     7234
    33.5805     7772
    33.6461    13865
    33.7118    11945
    33.7774     9980
    33.8431     7212
    33.9087     7350
    33.9744     7594
    34.0400     7591
    34.1057     8150
    34.1713    13491
    34.2370    10242
    34.3026     8218
    34.3683     6954
    34.4339     6815
    34.4996     6739
    34.5652     6711
    34.6309     6849
    34.6965     6865
    34.7622     7073
    34.8278     9579
    34.8935    10951
    34.9591     9167
    35.0248     7383
    35.0904     7423
    35.1561     7046
    35.2217     6866
    35.2874     6661
    35.3530     6659
    35.4187     6709
    35.4843     6877
    35.5500     6570
    35.6156     6690
    35.6813     6504
    35.7470     6753
    35.8126     6611
    35.8783     6589
    35.9439     6622
    36.0096     6598
    36.0752     6645
    36.1409     6606
    36.2065     6516
    36.2722     6680
    36.3378     6723
    36.4035     6802
    36.4691     8769
    36.5348     8195
    36.6004     8349
    36.6661     6820
    36.7317     6622
    36.7974     6536
    36.8630     6569
    36.9287     6462
    36.9943     6661
    37.0600     6547
    37.1256     6543
    37.1913     6456
    37.2569     6553
    37.3226     6498
    37.3882     6634
    37.4539     7029
    37.5195     7091
    37.5852     7936
    37.6508    11123
    37.7165    10494
    37.7821    10607
    37.8478     7872
    37.9134     7133
    37.9791     6832
    38.0448     6604
    38.1104     6612
    38.1761     6660
    38.2417     6629
    38.3074     6337
    38.3730     6370
    38.4387     6393
    38.5043     6318
    38.5700     6575
    38.6356     6561
    38.7013     6323
    38.7669     6390
    38.8326     6401
    38.8982     6590
    38.9639     6610
    39.0295     6455
    39.0952     6605
    39.1608     7932
    39.2265     8395
    39.2921     8036
    39.3578     6823
    39.4234     6541
    39.4891     6383
    39.5547     6421
    39.6204     6551
    39.6860     6473
    39.7517     6462
    39.8173     6440
    39.8830     6618
    39.9486     6569
    40.0143     6349
    40.0799     6554
    40.1456     6887
    40.2112     7890
    40.2769     9693
    40.3425     8381
    40.4082     7676
    40.4739     6647
    40.5395     6503
    40.6052     6524
    40.6708     6506
    40.7365     6510
    40.8021     6434
    40.8678     6803
    40.9334     6882
    40.9991     8074
    41.0647     9900
    41.1304    11663
    41.1960    11331
    41.2617     8761
    41.3273     7721
    41.3930     6710
    41.4586     6620
    41.5243     6566
    41.5899     6472
    41.6556     6354
    41.7212     6432
    41.7869     6371
    41.8525     6456
    41.9182     6588
    41.9838     6274
    42.0495     6328
    42.1151     6413
    42.1808     6486
    42.2464     6495
    42.3121     6334
    42.3777     6309
    42.4434     6347
    42.5090     6459
    42.5747     6403
    42.6404     6334
    42.7060     6291
    42.7717     6353
    42.8373     6433
    42.9030     6202
    42.9686     6424
    43.0343     6114
    43.0999     6392
    43.1656     6437
    43.2312     6528
    43.2969     6419
    43.3625     6409
    43.4282     6318
    43.4938     6766
    43.5595     7682
    43.6251     7046
    43.6908     7242
    43.7564     6743
    43.8221     6421
    43.8877     6432
    43.9534     6374
    44.0190     6513
    44.0847     6754
    44.1503     6478
    44.2160     6490
    44.2816     6408
    44.3473     6565
    44.4129     6788
    44.4786     6928
    44.5442     9556
    44.6099    12893
    44.6755     9573
    44.7412     9184
    44.8068     6888
    44.8725     6740
    44.9381     6624
    45.0038     6319
    45.0695     6285
    45.1351     6527
    45.2008     6291
    45.2664     6280
    45.3321     6636
    45.3977     6436
    45.4634     6380
    45.5290     6387
    45.5947     6386
    45.6603     6244
    45.7260     6402
    45.7916     6535
    45.8573     6651
    45.9229     6992
    45.9886     7281
    46.0542    10534
    46.1199    18686
    46.1855    12206
    46.2512    12671
    46.3168     8203
    46.3825     7092
    46.4481     6990
    46.5138     6558
    46.5794     6382
    46.6451     6577
    46.7107     6412
    46.7764     6313
    46.8420     6451
    46.9077     6380
    46.9733     6491
    47.0390     6584
    47.1046     6539
    47.1703     6422
    47.2359     6508
    47.3016     6611
    47.3673     7393
    47.4329     8820
    47.4986     8637
    47.5642    13816
    47.6299     8552
    47.6955     9960
    47.7612     7525
    47.8268     6904
    47.8925     7076
    47.9581     7084
    48.0238     7764
    48.0894    10518
    48.1551    17762
    48.2207    13641
    48.2864    12881
    48.3520     9010
    48.4177     7121
    48.4833     6523
    48.5490     6850
    48.6146     6769
    48.6803     7093
    48.7459     7911
    48.8116     7720
    48.8772     7846
    48.9429     7232
    49.0085     7232
    49.0742     7373
    49.1398     8271
    49.2055    14028
    49.2711    12720
    49.3368    13462
    49.4024    11239
    49.4681     8743
    49.5337     7576
    49.5994     6885
    49.6651     6807
    49.7307     7036
    49.7964     7389
    49.8620     9172
    49.9277    18541
    49.9933    12435
    50.0590    13022
    50.1246     9304
    50.1903     7066
    50.2559     6642
    50.3216     6534
    50.3872     6825
    50.4529     7294
    50.5185     7482
    50.5842     8463
    50.6498     8947
    50.7155     9564
    50.7811     8191
    50.8468     8186
    50.9124     6799
    50.9781     6592
    51.0437     6540
    51.1094     6508
    51.1750     6414
    51.2407     6357
    51.3063     6428
    51.3720     6671
    51.4376     6563
    51.5033     6744
    51.5689     7073
    51.6346     8373
    51.7002    15184
    51.7659    10077
    51.8315    11522
    51.8972     8686
    51.9628     7386
    52.0285     6727
    52.0942     6463
    52.1598     6495
    52.2255     6479
    52.2911     6306
    52.3568     6527
    52.4224     6385
    52.4881     6525
    52.5537     6333
    52.6194     6815
    52.6850     8012
    52.7507     6978
    52.8163     7343
    52.8820     6580
    52.9476     6328
    53.0133     6446
    53.0789     6437
    53.1446     6189
    53.2102     6402
    53.2759     6431
    53.3415     6491
    53.4072     6559
    53.4728     6274
    53.5385     6336
    53.6041     6411
    53.6698     6268
    53.7354     6517
    53.8011     6435
    53.8667     6434
    53.9324     6447
    53.9980     6447
    54.0637     6463
    54.1293     6328
    54.1950     6074
    54.2607     6284
    54.3263     6202
    54.3920     6433
    54.4576     6274
    54.5233     6544
    54.5889     6287
    54.6546     6119
    54.7202     6377
    54.7859     6220
    54.8515     6323
    54.9172     6404
    54.9828     6399
    55.0485     6230
    55.1141     6164
    55.1798     6401
    55.2454     6298
    55.3111     6356
    55.3767     6427
    55.4424     6615
    55.5080     8791
    55.5737     7520
    55.6393     8198
    55.7050     9853
    55.7706    12256
    55.8363     9472
    55.9019     9294
    55.9676     8428
    56.0332     7275
    56.0989     7186
    56.1645     6694
    56.2302     6838
    56.2958     7764
    56.3615     9247
    56.4271     7419
    56.4928     8083
    56.5584     7746
    56.6241     9598
    56.6898     9730
    56.7554     7613
    56.8211     8609
    56.8867     7332
    56.9524     7036
    57.0180     6578
    57.0837     6637
    57.1493     6691
    57.2150     6172
    57.2806     6384
    57.3463     6556
    57.4119     6242
    57.4776     6274
    57.5432     6474
    57.6089     6635
    57.6745     6906
    57.7402     7703
    57.8058     9251
    57.8715     9008
    57.9371    10669
    58.0028     9387
    58.0684     7954
    58.1341     7721
    58.1997     6773
    58.2654     6474
    58.3310     6558
    58.3967     6421
    58.4623     6365
    58.5280     6938
    58.5936     7738
    58.6593     7779
    58.7249     7698
    58.7906     9234
    58.8562     9390
    58.9219    10292
    58.9876    10207
    59.0532    10494
    59.1189     8970
    59.1845     9943
    59.2502     9961
    59.3158     7905
    59.3815     8045
    59.4471     6925
    59.5128     6367
    59.5784     6359
    59.6441     6493
    59.7097     6380
    59.7754     6271
    59.8410     6479
    59.9067     6810
    59.9723     8282
    60.0380    12393
    60.1036     8045
    60.1693     8886
    60.2349     8391
    60.3006     6782
    60.3662     6582
    60.4319     6514
    60.4975     6725
    60.5632     8303
    60.6288     8182
    60.6945     7312
    60.7601     7929
    60.8258     6845
    60.8914     6648
    60.9571     6603
    61.0227     6612
    61.0884     6860
    61.1540     7474
    61.2197    10820
    61.2854    13062
    61.3510    10149
    61.4167     9623
    61.4823     9232
    61.5480     7111
    61.6136     6993
    61.6793     7755
    61.7449     6669
    61.8106     6790
    61.8762     6599
    61.9419     6231
    62.0075     6219
    62.0732     6294
    62.1388     6075
    62.2045     6136
    62.2701     6019
    62.3358     6189
    62.4014     6141
    62.4671     6277
    62.5327     6132
    62.5984     5954
    62.6640     6134
    62.7297     6098
    62.7953     6201
    62.8610     6054
    62.9266     6200
    62.9923     6199
    63.0579     6292
    63.1236     6149
    63.1892     6393
    63.2549     7086
    63.3205     7353
    63.3862     6692
    63.4518     7327
    63.5175     8188
    63.5831     6817
    63.6488     6878
    63.7145     7075
    63.7801     6237
    63.8458     6207
    63.9114     6079
    63.9771     6207
    64.0427     6010
    64.1084     6234
    64.1740     6059
    64.2397     6331
    64.3053     6675
    64.3710     7211
    64.4366     6517
    64.5023     6678
    64.5679     6384
    64.6336     6459
    64.6992     6024
    64.7649     6264
    64.8305     5870
    64.8962     6054
    64.9618     6269
    65.0275     6206
    65.0931     6079
    65.1588     6115
    65.2244     6104
    65.2901     6062
    65.3557     6111
    65.4214     6083
    65.4870     5900
    65.5527     5993
    65.6183     5948
    65.6840     6064
    65.7496     5959
    65.8153     6026
    65.8810     5921
    65.9466     5960
    66.0123     5887
    66.0779     5849
    66.1436     5978
    66.2092     5994
    66.2749     5997
    66.3405     5839
    66.4062     5926
    66.4718     6232
    66.5375     6040
    66.6031     6026
    66.6688     5879
    66.7344     5953
    66.8001     5853
    66.8657     5910
    66.9314     5929
    66.9970     6074
    67.0627     5969
    67.1283     5825
    67.1940     5922
    67.2596     6076
    67.3253     6030
    67.3909     5920
    67.4566     6135
    67.5222     5934
    67.5879     5972
    67.6535     5910
    67.7192     6151
    67.7848     5773
    67.8505     5984
    67.9161     6135
    67.9818     5875
    68.0474     6004
    68.1131     5813
    68.1787     6068
    68.2444     5947
    68.3101     5888
    68.3757     5915
    68.4414     6103
    68.5070     6133
    68.5727     6025
    68.6383     6078
    68.7040     6183
    68.7696     6323
    68.8353     6337
    68.9009     6895
    68.9666     7191
    69.0322     7020
    69.0979     6643
    69.1635     6870
    69.2292     8395
    69.2948     7419
    69.3605     7215
    69.4261     8430
    69.4918     8034
    69.5574     7201
    69.6231     6911
    69.6887     7030
    69.7544     6645
    69.8200     7190
    69.8857     7298
    69.9513     6509
    70.0170     6647
    70.0826     6764
    70.1483     6234
    70.2139     6192
    70.2796     6198
    70.3452     6295
    70.4109     6128
    70.4765     6203
    70.5422     6521
    70.6078     6433
    70.6735     6464
    70.7392     6792
    70.8048     6612
    70.8705     6423
    70.9361     6567
    71.0018     6240
    71.0674     6214
    71.1331     6080
    71.1987     5955
    71.2644     6153
    71.3300     6046
    71.3957     5905
    71.4613     6154
    71.5270     6125
    71.5926     6199
    71.6583     6240
    71.7239     6364
    71.7896     6444
    71.8552     6978
    71.9209     8244
    71.9865     7965
    72.0522     7107
    72.1178     7064
    72.1835     6939
    72.2491     6417
    72.3148     6114
    72.3804     6067
    72.4461     5927
    72.5117     6267
    72.5774     6562
    72.6430     6448
    72.7087     6264
    72.7743     6287
    72.8400     6296
    72.9057     6132
    72.9713     6266
    73.0370     6033
    73.1026     6095
    73.1683     6382
    73.2339     6684
    73.2996     7105
    73.3652     7206
    73.4309     6445
    73.4965     6481
    73.5622     6563
    73.6278     6182
    73.6935     6098
    73.7591     5986
    73.8248     6005
    73.8904     6256
    73.9561     6282
    74.0217     6147
    74.0874     6611
    74.1530     6918
    74.2187     7042
    74.2843     7313
    74.3500     6939
    74.4156     6940
    74.4813     6538
    74.5469     6310
    74.6126     6488
    74.6782     6063
    74.7439     6178
    74.8095     6142
    74.8752     6063
    74.9408     6110
    75.0065     5801
    75.0722     5949
    75.1378     5924
    75.2035     5888
    75.2691     5851
    75.3348     5921
    75.4004     6002
    75.4661     5758
    75.5317     5765
    75.5974     5782
    75.6630     5734
    75.7287     6155
    75.7943     6376
    75.8600     6159
    75.9256     6187
    75.9913     6185
    76.0569     6037
    76.1226     5917
    76.1882     6008
    76.2539     5955
    76.3195     6091
    76.3852     6202
    76.4508     6302
    76.5165     6130
    76.5821     6452
    76.6478     6479
    76.7134     6772
    76.7791     7105
    76.8447     7040
    76.9104     7667
    76.9760     6900
    77.0417     6488
    77.1073     6498
    77.1730     6555
    77.2386     6147
    77.3043     6141
    77.3699     5943
    77.4356     6109
    77.5013     7062
    77.5669     6841
    77.6326     6137
    77.6982     6218
    77.7639     6476
    77.8295     6189
    77.8952     6043
    77.9608     5892
    78.0265     5852
    78.0921     5881
    78.1578     5759
    78.2234     5892
    78.2891     5863
    78.3547     5805
    78.4204     5939
    78.4860     5981
    78.5517     5995
    78.6173     6074
    78.6830     6019
    78.7486     6027
    78.8143     6159
    78.8799     6355
    78.9456     6620
    79.0112     7037
    79.0769     6720
    79.1425     6420
    79.2082     6727
    79.2738     6728
    79.3395     6468
    79.4051     6027
    79.4708     6103
    79.5364     6137
    79.6021     6471
    79.6677     6834
    79.7334     6842
    79.7990     6544
    79.8647     7072
    79.9304     6616
    79.9960     6484
    80.0617     6031
    80.1273     6268
    80.1930     5968
    80.2586     6006
    80.3243     6036
    80.3899     5962
    80.4556     6000
    80.5212     6084
    80.5869     6626
    80.6525     6813
    80.7182     6569
    80.7838     6756
    80.8495     6855
    80.9151     6397
    80.9808     6152
    81.0464     6287
    81.1121     6350
    81.1777     6518
    81.2434     6240
    81.3090     6427
    81.3747     6702
    81.4403     6877
    81.5060     6501
    81.5716     6415
    81.6373     6177
    81.7029     6232
    81.7686     6126
    81.8342     6057
    81.8999     5932
    81.9655     6045
    82.0312     5934
    82.0968     5918
    82.1625     6016
    82.2281     6216
    82.2938     6298
    82.3595     6092
    82.4251     6269
    82.4908     6397
    82.5564     6253
    82.6221     6223
    82.6877     6116
    82.7534     6180
    82.8190     6030
    82.8847     6217
    82.9503     6395
    83.0160     6705
    83.0816     6148
    83.1473     6039
    83.2129     6259
    83.2786     6136
    83.3442     5990
    83.4099     6100
    83.4755     5813
    83.5412     5921
    83.6068     5756
    83.6725     5722
    83.7381     5842
    83.8038     5972
    83.8694     5888
    83.9351     5711
    84.0007     5909
    84.0664     5837
    84.1320     5717
    84.1977     5848
    84.2633     6123
    84.3290     5964
    84.3946     5943
    84.4603     6108
    84.5260     6163
    84.5916     6321
    84.6573     6229
    84.7229     6203
    84.7886     5918
    84.8542     6064
    84.9199     6137
    84.9855     5917
    85.0512     5838
    85.1168     5831
    85.1825     5731
    85.2481     5891
    85.3138     5908
    85.3794     6021
    85.4451     5799
    85.5107     5821
    85.5764     5897
    85.6420     5773
    85.7077     6070
    85.7733     6144
    85.8390     5950
    85.9046     5656
    85.9703     6040
    86.0359     5808
    86.1016     5695
    86.1672     5965
    86.2329     5951
    86.2985     6020
    86.3642     6073
    86.4298     5804
    86.4955     5904
    86.5611     6153
    86.6268     6246
    86.6925     6174
    86.7581     6597
    86.8238     7128
    86.8894     6692
    86.9551     6532
    87.0207     6607
    87.0864     7131
    87.1520     6598
    87.2177     6120
    87.2833     6303
    87.3490     6224
    87.4146     5944
    87.4803     5892
    87.5459     5764
    87.6116     6016
    87.6772     5809
    87.7429     5974
    87.8085     5957
    87.8742     6035
    87.9398     6086
    88.0055     6257
    88.0711     6510
    88.1368     6142
    88.2024     6056
    88.2681     6183
    88.3337     6113
    88.3994     6012
    88.4650     5931
    88.5307     5952
    88.5963     6157
    88.6620     6389
    88.7276     6266
    88.7933     6262
    88.8589     6196
    88.9246     6315
    88.9902     6174
    89.0559     6178
    89.1216     6538
    89.1872     6202
    89.2529     6210
    89.3185     6293
    89.3842     6766
    89.4498     6908
    89.5155     6472
    89.5811     6295
    89.6468     6254
    89.7124     6634
    89.7781     7009
    89.8437     6292
    89.9094     6044
    89.9750     5985
    90.0407     6069
    90.1063     6225
    90.1720     5793
    90.2376     5849
    90.3033     5698
    90.3689     5717
    90.4346     5751
    90.5002     5840
    90.5659     5839
    90.6315     5866
    90.6972     5781
    90.7628     5787
    90.8285     5762
    90.8941     5868
    90.9598     5854
    91.0254     5921
    91.0911     5943
    91.1567     5899
    91.2224     5881
    91.2880     5998
    91.3537     6026
    91.4193     5924
    91.4850     6147
    91.5507     6186
    91.6163     6189
    91.6820     5965
    91.7476     6082
    91.8133     6167
    91.8789     6218
    91.9446     6536
    92.0102     6451
    92.0759     6376
    92.1415     6512
    92.2072     6765
    92.2728     6630
    92.3385     6083
    92.4041     6129
    92.4698     6228
    92.5354     6019
    92.6011     5960
    92.6667     5845
    92.7324     5768
    92.7980     5828
    92.8637     6035
    92.9293     6009
    92.9950     6076
    93.0606     5806
    93.1263     6008
    93.1919     5736
    93.2576     5805
    93.3232     5790
    93.3889     5797
    93.4545     5830
    93.5202     5995
    93.5858     6065
    93.6515     6091
    93.7171     6188
    93.7828     6241
    93.8484     6200
    93.9141     6091
    93.9798     5964
    94.0454     6001
    94.1111     6220
    94.1767     6073
    94.2424     5874
    94.3080     5846
    94.3737     5910
    94.4393     6236
    94.5050     6306
    94.5706     6326
    94.6363     6185
    94.7019     6320
    94.7676     6314
    94.8332     6201
    94.8989     6166
    94.9645     6393
    95.0302     6264
    95.0958     6189
    95.1615     5927
    95.2271     5978
    95.2928     6145
    95.3584     6351
    95.4241     6447
    95.4897     6137
    95.5554     6008
    95.6210     6074
    95.6867     6149
    95.7523     6487
    95.8180     6265
    95.8836     6054
    95.9493     6002
    96.0149     5995
    96.0806     5978
    96.1463     5932
    96.2119     5738
    96.2776     5857
    96.3432     5552
    96.4089     5731
    96.4745     5782
    96.5402     5816
    96.6058     5971
    96.6715     5811
    96.7371     5812
    96.8028     5966
    96.8684     5765
    96.9341     5987
    96.9997     5855
    97.0654     5917
    97.1310     6106
    97.1967     5968
    97.2623     5922
    97.3280     6033
    97.3936     6148
    97.4593     6096
    97.5249     6067
    97.5906     6120
    97.6562     6066
    97.7219     5909
    97.7875     5813
    97.8532     5761
    97.9188     6027
    97.9845     5902
    98.0501     5614
    98.1158     5759
    98.1814     6022
    98.2471     5776
    98.3128     6057
    98.3784     5961
    98.4441     5997
    98.5097     5882
    98.5754     6087
    98.6410     6158
    98.7067     6225
    98.7723     5998
    98.8380     5850
    98.9036     5872
    98.9693     5884
    99.0349     5892
    99.1006     5787
    99.1662     5882
    99.2319     5704
    99.2975     5607
    99.3632     5858
    99.4288     5881
    99.4945     5718
    99.5601     5800
    99.6258     5794
    99.6914     5810
    99.7571     5620
    99.8227     5760
    99.8884     5775
    99.9540     5876
    99.9934     5757