File: powder_X-ray_diffraction/variable-temperature_experiments/NaNbO2F2/raw_data/240°C.XY
! Initial file:   D:\ZAKARY_OUAIL\MA_THESE\Deuxième_année_de_thèse\DRX\Affinement_DRX\Fullprof\Thermodiff3-nuit_NaNbO2F2\240°C\NaNbO2F2-Lent_240°C.xrdml
! Initial format:  58
! WAVE (A):      1.54060     1.54060     1.00000
! REM : data have been multiplied by     1.0000
! X_data : 2 Theta (deg.)
! Y_data : Intensity (arb. units)
!     X         Y
!--------------------------------------------------------------------------------
    10.0116     7515
    10.0772     7634
    10.1429     7748
    10.2086     7621
    10.2742     7847
    10.3399     7589
    10.4055     7718
    10.4712     7768
    10.5368     7581
    10.6025     7521
    10.6681     7593
    10.7338     7719
    10.7994     7585
    10.8651     7893
    10.9307     8061
    10.9964     8286
    11.0620     8865
    11.1277    11404
    11.1933    28814
    11.2590    78608
    11.3246    16836
    11.3903     8667
    11.4559     8260
    11.5216     7634
    11.5872     7756
    11.6529     7687
    11.7185     7864
    11.7842     7781
    11.8498     8097
    11.9155     8100
    11.9811     7999
    12.0468     8002
    12.1124     8046
    12.1781     8027
    12.2437     8151
    12.3094     8172
    12.3750     8126
    12.4407     8057
    12.5063     7873
    12.5720     8047
    12.6377     7929
    12.7033     7952
    12.7690     8160
    12.8346     7948
    12.9003     7943
    12.9659     7941
    13.0316     7906
    13.0972     8044
    13.1629     7993
    13.2285     7609
    13.2942     7929
    13.3598     7901
    13.4255     7921
    13.4911     7824
    13.5568     7908
    13.6224     7849
    13.6881     7974
    13.7537     8039
    13.8194     7927
    13.8850     7746
    13.9507     7800
    14.0163     7924
    14.0820     7877
    14.1476     7986
    14.2133     7976
    14.2789     8033
    14.3446     7818
    14.4102     8113
    14.4759     8427
    14.5415     9414
    14.6072     8366
    14.6728     7824
    14.7385     7795
    14.8041     7948
    14.8698     7692
    14.9355     7664
    15.0011     7812
    15.0668     7461
    15.1324     7816
    15.1981     7697
    15.2637     7708
    15.3294     7649
    15.3950     7896
    15.4607     7697
    15.5263     7674
    15.5920     7635
    15.6576     7498
    15.7233     7563
    15.7889     7813
    15.8546     7703
    15.9202     7705
    15.9859     7800
    16.0515     7675
    16.1172     7510
    16.1828     7555
    16.2485     7507
    16.3141     7610
    16.3798     7581
    16.4454     7611
    16.5111     7617
    16.5767     7522
    16.6424     7591
    16.7080     7729
    16.7737     7940
    16.8393     8041
    16.9050     7651
    16.9706     7353
    17.0363     7460
    17.1019     7570
    17.1676     7268
    17.2333     7576
    17.2989     7402
    17.3646     7447
    17.4302     7315
    17.4959     7354
    17.5615     7368
    17.6272     7223
    17.6928     7337
    17.7585     7259
    17.8241     7339
    17.8898     7564
    17.9554     7465
    18.0211     7210
    18.0867     7303
    18.1524     7377
    18.2180     7155
    18.2837     7327
    18.3493     7178
    18.4150     7106
    18.4806     7355
    18.5463     7139
    18.6119     7300
    18.6776     7020
    18.7432     7313
    18.8089     7163
    18.8745     7331
    18.9402     7213
    19.0058     7131
    19.0715     7098
    19.1371     7428
    19.2028     7641
    19.2684     7614
    19.3341     7715
    19.3997     7695
    19.4654     7445
    19.5311     7973
    19.5967     8489
    19.6624     9137
    19.7280    14333
    19.7937    58902
    19.8593    80667
    19.9250    21338
    19.9906     9595
    20.0563     8398
    20.1219     7754
    20.1876     7886
    20.2532     7423
    20.3189     7420
    20.3845     7456
    20.4502     7424
    20.5158     7529
    20.5815     7520
    20.6471     7422
    20.7128     7388
    20.7784     7412
    20.8441     7457
    20.9097     7241
    20.9754     7407
    21.0410     7351
    21.1067     7292
    21.1723     7365
    21.2380     7199
    21.3036     7537
    21.3693     7427
    21.4349     7469
    21.5006     7458
    21.5662     7444
    21.6319     7543
    21.6975     7364
    21.7632     7474
    21.8288     7633
    21.8945     7694
    21.9602     7564
    22.0258     7501
    22.0915     7463
    22.1571     7460
    22.2228     7577
    22.2884     7390
    22.3541     7682
    22.4197     7602
    22.4854     8745
    22.5510    19314
    22.6167    29139
    22.6823    13436
    22.7480     7978
    22.8136     7683
    22.8793     7479
    22.9449     7227
    23.0106     7397
    23.0762     7451
    23.1419     7487
    23.2075     7524
    23.2732     7667
    23.3388     7656
    23.4045     7802
    23.4701     7677
    23.5358     7424
    23.6014     7688
    23.6671     7868
    23.7327     9184
    23.7984    26513
    23.8640    22073
    23.9297    10342
    23.9953     9569
    24.0610    21572
    24.1266    32485
    24.1923    15732
    24.2580     8247
    24.3236     8045
    24.3893     7771
    24.4549     7708
    24.5206     7226
    24.5862     7502
    24.6519     7369
    24.7175     7392
    24.7832     7367
    24.8488     7221
    24.9145     7097
    24.9801     7331
    25.0458     7363
    25.1114     7268
    25.1771     7464
    25.2427     7571
    25.3084     7256
    25.3740     7313
    25.4397     7193
    25.5053     7286
    25.5710     7384
    25.6366     7285
    25.7023     7198
    25.7679     7286
    25.8336     7275
    25.8992     7215
    25.9649     7421
    26.0305     7457
    26.0962     7392
    26.1618     7275
    26.2275     7418
    26.2931     7266
    26.3588     7147
    26.4244     7277
    26.4901     6980
    26.5558     7157
    26.6214     7181
    26.6871     7127
    26.7527     7132
    26.8184     7160
    26.8840     7159
    26.9497     7242
    27.0153     7523
    27.0810     7438
    27.1466     7503
    27.2123     7572
    27.2779     7465
    27.3436     7456
    27.4092     7257
    27.4749     7471
    27.5405     7516
    27.6062     7553
    27.6718     8086
    27.7375     8674
    27.8031     9828
    27.8688    14794
    27.9344    59602
    28.0001    73034
    28.0657    37756
    28.1314    11618
    28.1970     9026
    28.2627     8188
    28.3283     7713
    28.3940     7643
    28.4596     8166
    28.5253     8932
    28.5909     8125
    28.6566     7638
    28.7222     7672
    28.7879     7885
    28.8536     8326
    28.9192    13608
    28.9849    38893
    29.0505    25056
    29.1162     9871
    29.1818     9989
    29.2475    16141
    29.3131    14445
    29.3788    10190
    29.4444     8274
    29.5101     7475
    29.5757     7321
    29.6414     7495
    29.7070     7047
    29.7727     7213
    29.8383     7219
    29.9040     7098
    29.9696     6964
    30.0353     7086
    30.1009     7114
    30.1666     7020
    30.2322     6880
    30.2979     6977
    30.3635     7155
    30.4292     6927
    30.4948     7006
    30.5605     6966
    30.6261     6886
    30.6918     6972
    30.7574     6983
    30.8231     7033
    30.8887     6799
    30.9544     6883
    31.0200     6920
    31.0857     6791
    31.1514     7039
    31.2170     6959
    31.2827     6972
    31.3483     6935
    31.4140     6838
    31.4796     6748
    31.5453     6926
    31.6109     7023
    31.6766     6955
    31.7422     6860
    31.8079     6875
    31.8735     6878
    31.9392     6829
    32.0048     6890
    32.0705     6893
    32.1361     6808
    32.2018     6876
    32.2674     6890
    32.3331     6929
    32.3987     6963
    32.4644     6809
    32.5300     6954
    32.5957     6724
    32.6613     6844
    32.7270     7129
    32.7926     7670
    32.8583    12254
    32.9239    12909
    32.9896    19428
    33.0552    13979
    33.1209    12001
    33.1865     7514
    33.2522     6985
    33.3178     6959
    33.3835     7115
    33.4492     7089
    33.5148     7099
    33.5805     8206
    33.6461    14636
    33.7118    11426
    33.7774     9218
    33.8431     7242
    33.9087     7337
    33.9744     7983
    34.0400     7422
    34.1057     8721
    34.1713    13429
    34.2370    10514
    34.3026     7876
    34.3683     6938
    34.4339     6721
    34.4996     6716
    34.5652     6733
    34.6309     6835
    34.6965     6917
    34.7622     7130
    34.8278    10516
    34.8935    10299
    34.9591     9178
    35.0248     7368
    35.0904     7499
    35.1561     6977
    35.2217     6755
    35.2874     6723
    35.3530     6598
    35.4187     6646
    35.4843     6496
    35.5500     6762
    35.6156     6561
    35.6813     6457
    35.7470     6644
    35.8126     6572
    35.8783     6498
    35.9439     6432
    36.0096     6651
    36.0752     6524
    36.1409     6699
    36.2065     6634
    36.2722     6768
    36.3378     6628
    36.4035     6798
    36.4691     9156
    36.5348     8450
    36.6004     8120
    36.6661     6895
    36.7317     6563
    36.7974     6649
    36.8630     6675
    36.9287     6562
    36.9943     6642
    37.0600     6374
    37.1256     6719
    37.1913     6537
    37.2569     6692
    37.3226     6545
    37.3882     6782
    37.4539     7403
    37.5195     7212
    37.5852     8472
    37.6508    11523
    37.7165    10155
    37.7821     9846
    37.8478     8066
    37.9134     6858
    37.9791     6502
    38.0448     6479
    38.1104     6614
    38.1761     6619
    38.2417     6635
    38.3074     6415
    38.3730     6449
    38.4387     6554
    38.5043     6524
    38.5700     6664
    38.6356     6542
    38.7013     6586
    38.7669     6376
    38.8326     6544
    38.8982     6408
    38.9639     6612
    39.0295     6416
    39.0952     6604
    39.1608     8021
    39.2265     8174
    39.2921     8133
    39.3578     6652
    39.4234     6476
    39.4891     6606
    39.5547     6478
    39.6204     6596
    39.6860     6484
    39.7517     6393
    39.8173     6689
    39.8830     6483
    39.9486     6416
    40.0143     6518
    40.0799     6587
    40.1456     7048
    40.2112     8184
    40.2769     9750
    40.3425     8124
    40.4082     7582
    40.4739     6648
    40.5395     6682
    40.6052     6642
    40.6708     6504
    40.7365     6498
    40.8021     6499
    40.8678     6644
    40.9334     6908
    40.9991     8557
    41.0647    10594
    41.1304    11455
    41.1960    11421
    41.2617     8303
    41.3273     7308
    41.3930     6696
    41.4586     6559
    41.5243     6495
    41.5899     6445
    41.6556     6555
    41.7212     6342
    41.7869     6542
    41.8525     6395
    41.9182     6617
    41.9838     6467
    42.0495     6411
    42.1151     6406
    42.1808     6532
    42.2464     6331
    42.3121     6396
    42.3777     6384
    42.4434     6444
    42.5090     6179
    42.5747     6336
    42.6404     6425
    42.7060     6063
    42.7717     6389
    42.8373     6364
    42.9030     6373
    42.9686     6430
    43.0343     6561
    43.0999     6359
    43.1656     6346
    43.2312     6358
    43.2969     6294
    43.3625     6506
    43.4282     6403
    43.4938     6831
    43.5595     7809
    43.6251     7161
    43.6908     7236
    43.7564     6590
    43.8221     6322
    43.8877     6446
    43.9534     6444
    44.0190     6481
    44.0847     6834
    44.1503     6414
    44.2160     6555
    44.2816     6518
    44.3473     6521
    44.4129     6680
    44.4786     7364
    44.5442    10711
    44.6099    12099
    44.6755     9741
    44.7412     8448
    44.8068     6808
    44.8725     6488
    44.9381     6327
    45.0038     6417
    45.0695     6397
    45.1351     6372
    45.2008     6381
    45.2664     6407
    45.3321     6516
    45.3977     6300
    45.4634     6364
    45.5290     6461
    45.5947     6349
    45.6603     6215
    45.7260     6306
    45.7916     6591
    45.8573     6604
    45.9229     6853
    45.9886     7405
    46.0542    11781
    46.1199    18598
    46.1855    11865
    46.2512    12389
    46.3168     7939
    46.3825     7031
    46.4481     6795
    46.5138     6609
    46.5794     6606
    46.6451     6479
    46.7107     6479
    46.7764     6495
    46.8420     6352
    46.9077     6442
    46.9733     6473
    47.0390     6431
    47.1046     6543
    47.1703     6608
    47.2359     6652
    47.3016     6766
    47.3673     7844
    47.4329     8805
    47.4986     8779
    47.5642    14087
    47.6299     8335
    47.6955    10169
    47.7612     7298
    47.8268     7002
    47.8925     7128
    47.9581     7131
    48.0238     7866
    48.0894    11956
    48.1551    18585
    48.2207    12682
    48.2864    12721
    48.3520     8273
    48.4177     6992
    48.4833     6804
    48.5490     6460
    48.6146     6604
    48.6803     7214
    48.7459     7976
    48.8116     7829
    48.8772     7618
    48.9429     7344
    49.0085     7021
    49.0742     7490
    49.1398     9041
    49.2055    14404
    49.2711    11706
    49.3368    13996
    49.4024    10101
    49.4681     9030
    49.5337     7604
    49.5994     6738
    49.6651     6788
    49.7307     6920
    49.7964     7332
    49.8620     9826
    49.9277    19165
    49.9933    11383
    50.0590    13408
    50.1246     8798
    50.1903     7183
    50.2559     6792
    50.3216     6869
    50.3872     6913
    50.4529     7433
    50.5185     7449
    50.5842     8944
    50.6498     9286
    50.7155     9630
    50.7811     8189
    50.8468     7683
    50.9124     6731
    50.9781     6600
    51.0437     6460
    51.1094     6385
    51.1750     6532
    51.2407     6627
    51.3063     6519
    51.3720     6661
    51.4376     6521
    51.5033     6671
    51.5689     6880
    51.6346     8893
    51.7002    15546
    51.7659     9912
    51.8315    11674
    51.8972     8380
    51.9628     7061
    52.0285     6703
    52.0942     6597
    52.1598     6372
    52.2255     6285
    52.2911     6535
    52.3568     6483
    52.4224     6476
    52.4881     6561
    52.5537     6412
    52.6194     6688
    52.6850     8133
    52.7507     6764
    52.8163     7213
    52.8820     6643
    52.9476     6488
    53.0133     6473
    53.0789     6343
    53.1446     6205
    53.2102     6293
    53.2759     6443
    53.3415     6574
    53.4072     6423
    53.4728     6300
    53.5385     6227
    53.6041     6391
    53.6698     6391
    53.7354     6264
    53.8011     6341
    53.8667     6476
    53.9324     6443
    53.9980     6488
    54.0637     6281
    54.1293     6207
    54.1950     6273
    54.2607     6246
    54.3263     6156
    54.3920     6335
    54.4576     6150
    54.5233     6145
    54.5889     6167
    54.6546     6202
    54.7202     6294
    54.7859     6263
    54.8515     6311
    54.9172     6338
    54.9828     6428
    55.0485     6100
    55.1141     6466
    55.1798     6300
    55.2454     6310
    55.3111     6462
    55.3767     6549
    55.4424     6918
    55.5080     8764
    55.5737     7647
    55.6393     8554
    55.7050    10739
    55.7706    12372
    55.8363     8822
    55.9019     9433
    55.9676     7846
    56.0332     7160
    56.0989     6970
    56.1645     6835
    56.2302     6893
    56.2958     8474
    56.3615     8636
    56.4271     7491
    56.4928     8056
    56.5584     7630
    56.6241    10413
    56.6898     8650
    56.7554     7904
    56.8211     8327
    56.8867     7217
    56.9524     7066
    57.0180     6651
    57.0837     6737
    57.1493     6561
    57.2150     6346
    57.2806     6311
    57.3463     6523
    57.4119     6396
    57.4776     6477
    57.5432     6478
    57.6089     6387
    57.6745     7091
    57.7402     8307
    57.8058     9234
    57.8715     9054
    57.9371    10861
    58.0028     8908
    58.0684     8157
    58.1341     7640
    58.1997     6757
    58.2654     6435
    58.3310     6352
    58.3967     6379
    58.4623     6346
    58.5280     6959
    58.5936     7680
    58.6593     7594
    58.7249     7884
    58.7906     9665
    58.8562     9511
    58.9219    10745
    58.9876     9972
    59.0532    10129
    59.1189     8586
    59.1845    10477
    59.2502     8932
    59.3158     7519
    59.3815     7997
    59.4471     6644
    59.5128     6514
    59.5784     6465
    59.6441     6292
    59.7097     6355
    59.7754     6609
    59.8410     6558
    59.9067     6649
    59.9723     8787
    60.0380    12156
    60.1036     8059
    60.1693     8870
    60.2349     8117
    60.3006     6569
    60.3662     6390
    60.4319     6500
    60.4975     6753
    60.5632     8885
    60.6288     7247
    60.6945     7324
    60.7601     7497
    60.8258     6806
    60.8914     6526
    60.9571     6410
    61.0227     6777
    61.0884     6738
    61.1540     8272
    61.2197    11904
    61.2854    12957
    61.3510     9645
    61.4167    10000
    61.4823     8741
    61.5480     6816
    61.6136     7009
    61.6793     7805
    61.7449     6494
    61.8106     6782
    61.8762     6775
    61.9419     6320
    62.0075     6302
    62.0732     6136
    62.1388     6214
    62.2045     6257
    62.2701     6198
    62.3358     6059
    62.4014     6150
    62.4671     6124
    62.5327     6375
    62.5984     6195
    62.6640     6065
    62.7297     6157
    62.7953     6224
    62.8610     6102
    62.9266     6206
    62.9923     6006
    63.0579     6295
    63.1236     6334
    63.1892     6534
    63.2549     7533
    63.3205     6913
    63.3862     6742
    63.4518     7529
    63.5175     8066
    63.5831     6796
    63.6488     7042
    63.7145     6803
    63.7801     6151
    63.8458     6258
    63.9114     6097
    63.9771     6060
    64.0427     6073
    64.1084     6221
    64.1740     6055
    64.2397     6428
    64.3053     7128
    64.3710     7161
    64.4366     6463
    64.5023     6555
    64.5679     6552
    64.6336     6183
    64.6992     6177
    64.7649     6126
    64.8305     6249
    64.8962     6103
    64.9618     5973
    65.0275     6047
    65.0931     6162
    65.1588     6274
    65.2244     6121
    65.2901     6172
    65.3557     6075
    65.4214     6038
    65.4870     5954
    65.5527     5936
    65.6183     5924
    65.6840     5984
    65.7496     5977
    65.8153     5871
    65.8810     5944
    65.9466     5812
    66.0123     5793
    66.0779     5865
    66.1436     5992
    66.2092     6068
    66.2749     5991
    66.3405     5983
    66.4062     6228
    66.4718     6060
    66.5375     6109
    66.6031     6142
    66.6688     6101
    66.7344     6113
    66.8001     6092
    66.8657     6127
    66.9314     5849
    66.9970     5943
    67.0627     5996
    67.1283     5878
    67.1940     5915
    67.2596     6086
    67.3253     6069
    67.3909     6097
    67.4566     6029
    67.5222     5990
    67.5879     5981
    67.6535     6074
    67.7192     6087
    67.7848     5939
    67.8505     6038
    67.9161     5990
    67.9818     6103
    68.0474     6135
    68.1131     5939
    68.1787     6133
    68.2444     6011
    68.3101     6020
    68.3757     5780
    68.4414     6028
    68.5070     5929
    68.5727     6005
    68.6383     6047
    68.7040     6168
    68.7696     6253
    68.8353     6678
    68.9009     7124
    68.9666     7192
    69.0322     6574
    69.0979     6703
    69.1635     7040
    69.2292     8211
    69.2948     7620
    69.3605     7316
    69.4261     8559
    69.4918     7909
    69.5574     7176
    69.6231     6992
    69.6887     6627
    69.7544     6597
    69.8200     7152
    69.8857     7235
    69.9513     6458
    70.0170     6482
    70.0826     6853
    70.1483     6255
    70.2139     6287
    70.2796     6144
    70.3452     6227
    70.4109     6169
    70.4765     6244
    70.5422     6438
    70.6078     6593
    70.6735     6609
    70.7392     6644
    70.8048     6632
    70.8705     6407
    70.9361     6379
    71.0018     5991
    71.0674     5976
    71.1331     6089
    71.1987     6128
    71.2644     6040
    71.3300     5991
    71.3957     6131
    71.4613     6026
    71.5270     6184
    71.5926     6176
    71.6583     6382
    71.7239     6427
    71.7896     6577
    71.8552     7028
    71.9209     8442
    71.9865     7791
    72.0522     6720
    72.1178     7186
    72.1835     6972
    72.2491     6451
    72.3148     6175
    72.3804     6094
    72.4461     5971
    72.5117     6235
    72.5774     6658
    72.6430     6260
    72.7087     6112
    72.7743     6241
    72.8400     6265
    72.9057     6201
    72.9713     6202
    73.0370     6103
    73.1026     6111
    73.1683     6479
    73.2339     7049
    73.2996     7304
    73.3652     6660
    73.4309     6410
    73.4965     6511
    73.5622     6529
    73.6278     6112
    73.6935     6010
    73.7591     6233
    73.8248     6216
    73.8904     6163
    73.9561     6278
    74.0217     6562
    74.0874     6832
    74.1530     7191
    74.2187     7275
    74.2843     7238
    74.3500     6883
    74.4156     6895
    74.4813     6537
    74.5469     6357
    74.6126     6234
    74.6782     6031
    74.7439     6121
    74.8095     5939
    74.8752     6240
    74.9408     5875
    75.0065     5957
    75.0722     6047
    75.1378     5989
    75.2035     5946
    75.2691     5862
    75.3348     5798
    75.4004     6019
    75.4661     5948
    75.5317     5806
    75.5974     5852
    75.6630     5856
    75.7287     6217
    75.7943     6247
    75.8600     6109
    75.9256     5899
    75.9913     6340
    76.0569     6134
    76.1226     5961
    76.1882     5891
    76.2539     6166
    76.3195     5900
    76.3852     5927
    76.4508     6318
    76.5165     6197
    76.5821     6230
    76.6478     6594
    76.7134     7185
    76.7791     7056
    76.8447     6922
    76.9104     7610
    76.9760     6869
    77.0417     6326
    77.1073     6677
    77.1730     6382
    77.2386     6224
    77.3043     6164
    77.3699     6045
    77.4356     6269
    77.5013     7073
    77.5669     6713
    77.6326     6129
    77.6982     6300
    77.7639     6503
    77.8295     6235
    77.8952     5736
    77.9608     5805
    78.0265     5748
    78.0921     5924
    78.1578     5864
    78.2234     5964
    78.2891     5940
    78.3547     5871
    78.4204     5791
    78.4860     5862
    78.5517     5932
    78.6173     6002
    78.6830     6179
    78.7486     6014
    78.8143     6150
    78.8799     6404
    78.9456     6671
    79.0112     6902
    79.0769     6444
    79.1425     6572
    79.2082     6539
    79.2738     6612
    79.3395     6212
    79.4051     6196
    79.4708     6286
    79.5364     6318
    79.6021     6508
    79.6677     6992
    79.7334     6785
    79.7990     6402
    79.8647     6879
    79.9304     6734
    79.9960     6146
    80.0617     6322
    80.1273     6425
    80.1930     6031
    80.2586     6043
    80.3243     6019
    80.3899     6017
    80.4556     6106
    80.5212     6450
    80.5869     6854
    80.6525     6901
    80.7182     6682
    80.7838     6864
    80.8495     6668
    80.9151     6378
    80.9808     6248
    81.0464     6292
    81.1121     6329
    81.1777     6287
    81.2434     6284
    81.3090     6505
    81.3747     6673
    81.4403     6684
    81.5060     6553
    81.5716     6241
    81.6373     6416
    81.7029     6151
    81.7686     6061
    81.8342     6020
    81.8999     5995
    81.9655     6069
    82.0312     5827
    82.0968     5976
    82.1625     6018
    82.2281     6116
    82.2938     6225
    82.3595     5986
    82.4251     6177
    82.4908     6404
    82.5564     6319
    82.6221     6195
    82.6877     6036
    82.7534     5970
    82.8190     6025
    82.8847     6277
    82.9503     6489
    83.0160     6400
    83.0816     5939
    83.1473     6233
    83.2129     6106
    83.2786     6377
    83.3442     6145
    83.4099     5740
    83.4755     5774
    83.5412     5643
    83.6068     5776
    83.6725     5767
    83.7381     5959
    83.8038     5752
    83.8694     5977
    83.9351     5775
    84.0007     5871
    84.0664     6046
    84.1320     5849
    84.1977     6011
    84.2633     5998
    84.3290     5954
    84.3946     5775
    84.4603     6074
    84.5260     6261
    84.5916     6234
    84.6573     6281
    84.7229     6118
    84.7886     5912
    84.8542     6049
    84.9199     5824
    84.9855     5897
    85.0512     5875
    85.1168     5842
    85.1825     5817
    85.2481     5943
    85.3138     5933
    85.3794     6035
    85.4451     5878
    85.5107     6073
    85.5764     5838
    85.6420     6070
    85.7077     6162
    85.7733     6223
    85.8390     5783
    85.9046     5894
    85.9703     6248
    86.0359     6022
    86.1016     5928
    86.1672     5639
    86.2329     5902
    86.2985     6067
    86.3642     5984
    86.4298     6093
    86.4955     6159
    86.5611     6004
    86.6268     6113
    86.6925     6167
    86.7581     6755
    86.8238     7157
    86.8894     6460
    86.9551     6505
    87.0207     6673
    87.0864     6903
    87.1520     6145
    87.2177     6153
    87.2833     6122
    87.3490     6190
    87.4146     6063
    87.4803     5991
    87.5459     6092
    87.6116     5939
    87.6772     5860
    87.7429     6145
    87.8085     6192
    87.8742     6060
    87.9398     6266
    88.0055     6406
    88.0711     6591
    88.1368     6199
    88.2024     6018
    88.2681     6088
    88.3337     6104
    88.3994     5859
    88.4650     5773
    88.5307     6022
    88.5963     6225
    88.6620     6366
    88.7276     6089
    88.7933     6135
    88.8589     6378
    88.9246     6208
    88.9902     6050
    89.0559     6073
    89.1216     6549
    89.1872     6347
    89.2529     6261
    89.3185     6380
    89.3842     6678
    89.4498     6819
    89.5155     6496
    89.5811     6129
    89.6468     6163
    89.7124     6469
    89.7781     6882
    89.8437     6202
    89.9094     5966
    89.9750     5894
    90.0407     6048
    90.1063     5766
    90.1720     5685
    90.2376     5786
    90.3033     5848
    90.3689     5702
    90.4346     5677
    90.5002     5876
    90.5659     5880
    90.6315     6011
    90.6972     5794
    90.7628     5880
    90.8285     5870
    90.8941     5767
    90.9598     5970
    91.0254     5862
    91.0911     6189
    91.1567     6162
    91.2224     6064
    91.2880     6010
    91.3537     5886
    91.4193     6106
    91.4850     6174
    91.5507     6124
    91.6163     6415
    91.6820     6183
    91.7476     6018
    91.8133     6249
    91.8789     6442
    91.9446     6593
    92.0102     6394
    92.0759     6068
    92.1415     6420
    92.2072     6648
    92.2728     6609
    92.3385     6138
    92.4041     6088
    92.4698     6190
    92.5354     6047
    92.6011     5839
    92.6667     5798
    92.7324     5765
    92.7980     5824
    92.8637     5760
    92.9293     5994
    92.9950     5768
    93.0606     5831
    93.1263     5878
    93.1919     5980
    93.2576     5982
    93.3232     5766
    93.3889     5908
    93.4545     5828
    93.5202     5869
    93.5858     6151
    93.6515     6102
    93.7171     6270
    93.7828     6316
    93.8484     5883
    93.9141     5890
    93.9798     5881
    94.0454     6119
    94.1111     5919
    94.1767     5966
    94.2424     5788
    94.3080     6000
    94.3737     6027
    94.4393     6134
    94.5050     6293
    94.5706     6182
    94.6363     6317
    94.7019     6151
    94.7676     6302
    94.8332     6169
    94.8989     6158
    94.9645     6217
    95.0302     6169
    95.0958     5820
    95.1615     5976
    95.2271     5969
    95.2928     6256
    95.3584     6473
    95.4241     6198
    95.4897     6168
    95.5554     5985
    95.6210     6189
    95.6867     6505
    95.7523     6548
    95.8180     6000
    95.8836     5938
    95.9493     5921
    96.0149     5988
    96.0806     5972
    96.1463     5968
    96.2119     5568
    96.2776     5701
    96.3432     5710
    96.4089     5746
    96.4745     5742
    96.5402     5825
    96.6058     5666
    96.6715     5814
    96.7371     5775
    96.8028     5865
    96.8684     5955
    96.9341     6072
    96.9997     6108
    97.0654     6080
    97.1310     5943
    97.1967     6030
    97.2623     6057
    97.3280     6008
    97.3936     5856
    97.4593     5992
    97.5249     6037
    97.5906     6249
    97.6562     5879
    97.7219     5968
    97.7875     5700
    97.8532     5836
    97.9188     5860
    97.9845     5875
    98.0501     5843
    98.1158     5851
    98.1814     5919
    98.2471     5950
    98.3128     6009
    98.3784     5976
    98.4441     5974
    98.5097     6068
    98.5754     6068
    98.6410     6229
    98.7067     6030
    98.7723     6046
    98.8380     6060
    98.9036     5769
    98.9693     5714
    99.0349     5999
    99.1006     5866
    99.1662     5613
    99.2319     5688
    99.2975     5740
    99.3632     5747
    99.4288     5815
    99.4945     5576
    99.5601     5618
    99.6258     5664
    99.6914     5766
    99.7571     5675
    99.8227     5691
    99.8884     5810
    99.9540     5753
    99.9934     5784