File: powder_X-ray_diffraction/variable-temperature_experiments/NaNbO2F2/raw_data/250°C.XY
! Initial file:   D:\ZAKARY_OUAIL\MA_THESE\Deuxième_année_de_thèse\DRX\Affinement_DRX\Fullprof\Thermodiff3-nuit_NaNbO2F2\250°C\NaNbO2F2-Lent_250°C.xrdml
! Initial format:  58
! WAVE (A):      1.54060     1.54060     1.00000
! REM : data have been multiplied by     1.0000
! X_data : 2 Theta (deg.)
! Y_data : Intensity (arb. units)
!     X         Y
!--------------------------------------------------------------------------------
    10.0116     7409
    10.0772     7572
    10.1429     7877
    10.2086     7854
    10.2742     7459
    10.3399     7681
    10.4055     7663
    10.4712     7651
    10.5368     7684
    10.6025     7382
    10.6681     7590
    10.7338     7662
    10.7994     7759
    10.8651     7915
    10.9307     8112
    10.9964     8276
    11.0620     8978
    11.1277    11273
    11.1933    29030
    11.2590    78496
    11.3246    16405
    11.3903     8665
    11.4559     8103
    11.5216     7623
    11.5872     7583
    11.6529     7653
    11.7185     7684
    11.7842     7817
    11.8498     7890
    11.9155     7902
    11.9811     7911
    12.0468     8059
    12.1124     7962
    12.1781     7998
    12.2437     7917
    12.3094     7996
    12.3750     8238
    12.4407     7964
    12.5063     8033
    12.5720     7972
    12.6377     7904
    12.7033     8139
    12.7690     7841
    12.8346     7825
    12.9003     8016
    12.9659     7941
    13.0316     7865
    13.0972     7838
    13.1629     7847
    13.2285     8035
    13.2942     7755
    13.3598     7794
    13.4255     7830
    13.4911     7833
    13.5568     7819
    13.6224     7741
    13.6881     7991
    13.7537     8035
    13.8194     7794
    13.8850     7967
    13.9507     7781
    14.0163     7598
    14.0820     7869
    14.1476     7769
    14.2133     7904
    14.2789     7888
    14.3446     7726
    14.4102     8138
    14.4759     8504
    14.5415     9592
    14.6072     8241
    14.6728     7744
    14.7385     7837
    14.8041     7737
    14.8698     7631
    14.9355     7679
    15.0011     7764
    15.0668     7873
    15.1324     7748
    15.1981     7543
    15.2637     7728
    15.3294     7686
    15.3950     7730
    15.4607     7585
    15.5263     7590
    15.5920     7620
    15.6576     7559
    15.7233     7585
    15.7889     7635
    15.8546     7721
    15.9202     7467
    15.9859     7612
    16.0515     7644
    16.1172     7489
    16.1828     7657
    16.2485     7597
    16.3141     7756
    16.3798     7801
    16.4454     7673
    16.5111     7506
    16.5767     7484
    16.6424     7492
    16.7080     7667
    16.7737     7884
    16.8393     8087
    16.9050     7455
    16.9706     7601
    17.0363     7485
    17.1019     7619
    17.1676     7560
    17.2333     7496
    17.2989     7472
    17.3646     7269
    17.4302     7292
    17.4959     7350
    17.5615     7396
    17.6272     7483
    17.6928     7299
    17.7585     7267
    17.8241     7452
    17.8898     7443
    17.9554     7476
    18.0211     7533
    18.0867     7277
    18.1524     7162
    18.2180     7364
    18.2837     7370
    18.3493     7245
    18.4150     7125
    18.4806     7369
    18.5463     7305
    18.6119     7210
    18.6776     7185
    18.7432     7224
    18.8089     7172
    18.8745     7131
    18.9402     7113
    19.0058     7293
    19.0715     7210
    19.1371     7468
    19.2028     7589
    19.2684     7758
    19.3341     7740
    19.3997     7447
    19.4654     7727
    19.5311     7851
    19.5967     8360
    19.6624     9285
    19.7280    15627
    19.7937    65315
    19.8593    77200
    19.9250    18510
    19.9906     9359
    20.0563     8476
    20.1219     7765
    20.1876     7764
    20.2532     7560
    20.3189     7608
    20.3845     7573
    20.4502     7530
    20.5158     7662
    20.5815     7570
    20.6471     7538
    20.7128     7228
    20.7784     7513
    20.8441     7470
    20.9097     7458
    20.9754     7320
    21.0410     7266
    21.1067     7250
    21.1723     7318
    21.2380     7245
    21.3036     7337
    21.3693     7559
    21.4349     7511
    21.5006     7474
    21.5662     7525
    21.6319     7232
    21.6975     7522
    21.7632     7768
    21.8288     7553
    21.8945     7653
    21.9602     7422
    22.0258     7484
    22.0915     7482
    22.1571     7672
    22.2228     7381
    22.2884     7261
    22.3541     7592
    22.4197     7724
    22.4854     8713
    22.5510    20926
    22.6167    28379
    22.6823    12556
    22.7480     8014
    22.8136     7724
    22.8793     7401
    22.9449     7285
    23.0106     7401
    23.0762     7310
    23.1419     7620
    23.2075     7564
    23.2732     7476
    23.3388     7496
    23.4045     7716
    23.4701     7454
    23.5358     7538
    23.6014     7749
    23.6671     7751
    23.7327     9468
    23.7984    26608
    23.8640    21601
    23.9297    10299
    23.9953     9656
    24.0610    23855
    24.1266    30972
    24.1923    14656
    24.2580     8180
    24.3236     7915
    24.3893     7940
    24.4549     7520
    24.5206     7208
    24.5862     7547
    24.6519     7541
    24.7175     7433
    24.7832     7345
    24.8488     7374
    24.9145     7329
    24.9801     7253
    25.0458     7191
    25.1114     7365
    25.1771     7624
    25.2427     7422
    25.3084     7254
    25.3740     7242
    25.4397     7388
    25.5053     7310
    25.5710     7262
    25.6366     7481
    25.7023     7363
    25.7679     7254
    25.8336     7251
    25.8992     7374
    25.9649     7326
    26.0305     7330
    26.0962     7316
    26.1618     7251
    26.2275     7162
    26.2931     7247
    26.3588     7056
    26.4244     7037
    26.4901     7075
    26.5558     7097
    26.6214     7136
    26.6871     7247
    26.7527     7080
    26.8184     7097
    26.8840     7137
    26.9497     7014
    27.0153     7266
    27.0810     7463
    27.1466     7431
    27.2123     7451
    27.2779     7334
    27.3436     7535
    27.4092     7341
    27.4749     7350
    27.5405     7562
    27.6062     7471
    27.6718     7951
    27.7375     8420
    27.8031     9792
    27.8688    15897
    27.9344    68632
    28.0001    68430
    28.0657    32517
    28.1314    11184
    28.1970     8692
    28.2627     7980
    28.3283     7635
    28.3940     7522
    28.4596     7920
    28.5253     8621
    28.5909     8143
    28.6566     7665
    28.7222     7574
    28.7879     7929
    28.8536     8264
    28.9192    14499
    28.9849    36318
    29.0505    24546
    29.1162     9698
    29.1818    10628
    29.2475    15976
    29.3131    14201
    29.3788    10106
    29.4444     8129
    29.5101     7337
    29.5757     7057
    29.6414     7162
    29.7070     7204
    29.7727     7160
    29.8383     7162
    29.9040     7127
    29.9696     7003
    30.0353     7148
    30.1009     6885
    30.1666     7061
    30.2322     6938
    30.2979     6984
    30.3635     7047
    30.4292     6911
    30.4948     7088
    30.5605     7030
    30.6261     7138
    30.6918     6765
    30.7574     6964
    30.8231     6977
    30.8887     6889
    30.9544     7042
    31.0200     6901
    31.0857     6885
    31.1514     6717
    31.2170     7129
    31.2827     6809
    31.3483     6853
    31.4140     6885
    31.4796     6898
    31.5453     6923
    31.6109     6866
    31.6766     6850
    31.7422     6767
    31.8079     6708
    31.8735     6828
    31.9392     7068
    32.0048     6777
    32.0705     6899
    32.1361     6653
    32.2018     6929
    32.2674     7036
    32.3331     6799
    32.3987     6947
    32.4644     6792
    32.5300     6941
    32.5957     6951
    32.6613     7107
    32.7270     7119
    32.7926     7721
    32.8583    13845
    32.9239    12442
    32.9896    19270
    33.0552    13576
    33.1209    11703
    33.1865     7653
    33.2522     7159
    33.3178     6755
    33.3835     6734
    33.4492     7010
    33.5148     7155
    33.5805     8686
    33.6461    15307
    33.7118    11200
    33.7774     8699
    33.8431     7172
    33.9087     7400
    33.9744     7942
    34.0400     7704
    34.1057     8994
    34.1713    13367
    34.2370    10685
    34.3026     7552
    34.3683     6886
    34.4339     6771
    34.4996     6731
    34.5652     6714
    34.6309     6688
    34.6965     6919
    34.7622     7249
    34.8278    11228
    34.8935     9861
    34.9591     8617
    35.0248     7286
    35.0904     7182
    35.1561     7104
    35.2217     6581
    35.2874     6601
    35.3530     6651
    35.4187     6710
    35.4843     6655
    35.5500     6686
    35.6156     6682
    35.6813     6561
    35.7470     6506
    35.8126     6534
    35.8783     6557
    35.9439     6731
    36.0096     6711
    36.0752     6652
    36.1409     6412
    36.2065     6641
    36.2722     6424
    36.3378     6797
    36.4035     6804
    36.4691     8949
    36.5348     8164
    36.6004     8326
    36.6661     6741
    36.7317     6638
    36.7974     6481
    36.8630     6489
    36.9287     6381
    36.9943     6542
    37.0600     6605
    37.1256     6350
    37.1913     6465
    37.2569     6610
    37.3226     6578
    37.3882     6967
    37.4539     7382
    37.5195     7225
    37.5852     8460
    37.6508    11560
    37.7165    10803
    37.7821     8893
    37.8478     7880
    37.9134     6584
    37.9791     6758
    38.0448     6705
    38.1104     6581
    38.1761     6708
    38.2417     6609
    38.3074     6406
    38.3730     6441
    38.4387     6625
    38.5043     6375
    38.5700     6541
    38.6356     6418
    38.7013     6480
    38.7669     6629
    38.8326     6367
    38.8982     6437
    38.9639     6387
    39.0295     6561
    39.0952     6630
    39.1608     8590
    39.2265     7747
    39.2921     7958
    39.3578     6597
    39.4234     6475
    39.4891     6463
    39.5547     6463
    39.6204     6479
    39.6860     6384
    39.7517     6633
    39.8173     6585
    39.8830     6335
    39.9486     6545
    40.0143     6560
    40.0799     6687
    40.1456     7040
    40.2112     8558
    40.2769     9753
    40.3425     8169
    40.4082     7349
    40.4739     6577
    40.5395     6393
    40.6052     6308
    40.6708     6478
    40.7365     6424
    40.8021     6618
    40.8678     6724
    40.9334     7140
    40.9991     8997
    41.0647    11490
    41.1304    10715
    41.1960    11044
    41.2617     8245
    41.3273     7082
    41.3930     6433
    41.4586     6507
    41.5243     6471
    41.5899     6484
    41.6556     6487
    41.7212     6415
    41.7869     6374
    41.8525     6380
    41.9182     6474
    41.9838     6638
    42.0495     6393
    42.1151     6214
    42.1808     6433
    42.2464     6599
    42.3121     6477
    42.3777     6446
    42.4434     6461
    42.5090     6321
    42.5747     6262
    42.6404     6261
    42.7060     6580
    42.7717     6523
    42.8373     6328
    42.9030     6390
    42.9686     6300
    43.0343     6419
    43.0999     6378
    43.1656     6525
    43.2312     6328
    43.2969     6424
    43.3625     6383
    43.4282     6493
    43.4938     6694
    43.5595     7849
    43.6251     7118
    43.6908     7104
    43.7564     6612
    43.8221     6444
    43.8877     6386
    43.9534     6354
    44.0190     6529
    44.0847     6770
    44.1503     6526
    44.2160     6548
    44.2816     6615
    44.3473     6527
    44.4129     6719
    44.4786     7585
    44.5442    11913
    44.6099    10727
    44.6755    10100
    44.7412     7613
    44.8068     6646
    44.8725     6452
    44.9381     6466
    45.0038     6407
    45.0695     6216
    45.1351     6392
    45.2008     6207
    45.2664     6494
    45.3321     6567
    45.3977     6399
    45.4634     6313
    45.5290     6449
    45.5947     6296
    45.6603     6637
    45.7260     6383
    45.7916     6600
    45.8573     6737
    45.9229     6847
    45.9886     7582
    46.0542    13754
    46.1199    17993
    46.1855    11892
    46.2512    11571
    46.3168     7607
    46.3825     6899
    46.4481     6762
    46.5138     6529
    46.5794     6411
    46.6451     6439
    46.7107     6427
    46.7764     6563
    46.8420     6522
    46.9077     6456
    46.9733     6438
    47.0390     6464
    47.1046     6432
    47.1703     6493
    47.2359     6401
    47.3016     6948
    47.3673     8320
    47.4329     8629
    47.4986     9133
    47.5642    13530
    47.6299     8188
    47.6955     9801
    47.7612     7169
    47.8268     6852
    47.8925     6956
    47.9581     7276
    48.0238     8047
    48.0894    13710
    48.1551    18218
    48.2207    12209
    48.2864    12226
    48.3520     7742
    48.4177     6866
    48.4833     6657
    48.5490     6691
    48.6146     6602
    48.6803     7241
    48.7459     7940
    48.8116     7742
    48.8772     7559
    48.9429     6981
    49.0085     7273
    49.0742     7296
    49.1398     9695
    49.2055    15334
    49.2711    10739
    49.3368    14219
    49.4024     9140
    49.4681     8608
    49.5337     7319
    49.5994     6755
    49.6651     6797
    49.7307     7120
    49.7964     7449
    49.8620    10871
    49.9277    19497
    49.9933    10742
    50.0590    13280
    50.1246     8246
    50.1903     7087
    50.2559     6687
    50.3216     6594
    50.3872     7006
    50.4529     7508
    50.5185     7326
    50.5842     9274
    50.6498     9582
    50.7155     9086
    50.7811     8127
    50.8468     7476
    50.9124     6603
    50.9781     6630
    51.0437     6593
    51.1094     6528
    51.1750     6459
    51.2407     6563
    51.3063     6490
    51.3720     6498
    51.4376     6532
    51.5033     6871
    51.5689     7180
    51.6346     9295
    51.7002    15132
    51.7659    10061
    51.8315    11509
    51.8972     8220
    51.9628     7041
    52.0285     6702
    52.0942     6477
    52.1598     6466
    52.2255     6516
    52.2911     6522
    52.3568     6482
    52.4224     6354
    52.4881     6332
    52.5537     6453
    52.6194     6887
    52.6850     8154
    52.7507     6779
    52.8163     7393
    52.8820     6700
    52.9476     6366
    53.0133     6352
    53.0789     6391
    53.1446     6281
    53.2102     6321
    53.2759     6435
    53.3415     6411
    53.4072     6415
    53.4728     6339
    53.5385     6332
    53.6041     6263
    53.6698     6379
    53.7354     6230
    53.8011     6460
    53.8667     6354
    53.9324     6470
    53.9980     6164
    54.0637     6040
    54.1293     6129
    54.1950     6123
    54.2607     6399
    54.3263     6132
    54.3920     6299
    54.4576     6227
    54.5233     6249
    54.5889     6380
    54.6546     6305
    54.7202     6203
    54.7859     6367
    54.8515     6264
    54.9172     6372
    54.9828     6374
    55.0485     6419
    55.1141     6057
    55.1798     6287
    55.2454     6262
    55.3111     6480
    55.3767     6517
    55.4424     6992
    55.5080     8895
    55.5737     7823
    55.6393     9190
    55.7050    12318
    55.7706    11276
    55.8363     9072
    55.9019     9529
    55.9676     7313
    56.0332     7375
    56.0989     6759
    56.1645     6703
    56.2302     6885
    56.2958     9047
    56.3615     7803
    56.4271     7855
    56.4928     7905
    56.5584     8142
    56.6241    11081
    56.6898     7982
    56.7554     8761
    56.8211     7903
    56.8867     7343
    56.9524     6821
    57.0180     6678
    57.0837     6393
    57.1493     6290
    57.2150     6355
    57.2806     6345
    57.3463     6374
    57.4119     6323
    57.4776     6531
    57.5432     6447
    57.6089     6475
    57.6745     7042
    57.7402     8705
    57.8058     9082
    57.8715     9066
    57.9371    11135
    58.0028     8102
    58.0684     8016
    58.1341     7417
    58.1997     6750
    58.2654     6520
    58.3310     6187
    58.3967     6590
    58.4623     6568
    58.5280     7253
    58.5936     7787
    58.6593     7231
    58.7249     8329
    58.7906     9752
    58.8562     9881
    58.9219    10118
    58.9876     9893
    59.0532    10143
    59.1189     8802
    59.1845    10772
    59.2502     7911
    59.3158     7680
    59.3815     7508
    59.4471     6512
    59.5128     6381
    59.5784     6137
    59.6441     6293
    59.7097     6336
    59.7754     6450
    59.8410     6604
    59.9067     6880
    59.9723     9326
    60.0380    11793
    60.1036     7692
    60.1693     9112
    60.2349     7565
    60.3006     6407
    60.3662     6475
    60.4319     6414
    60.4975     7267
    60.5632     8994
    60.6288     7226
    60.6945     7333
    60.7601     7141
    60.8258     6545
    60.8914     6560
    60.9571     6649
    61.0227     6803
    61.0884     7147
    61.1540     8971
    61.2197    13452
    61.2854    12008
    61.3510     9382
    61.4167     9928
    61.4823     7728
    61.5480     6597
    61.6136     6540
    61.6793     7569
    61.7449     6521
    61.8106     6871
    61.8762     6591
    61.9419     6308
    62.0075     6206
    62.0732     6104
    62.1388     6059
    62.2045     6213
    62.2701     6098
    62.3358     6034
    62.4014     6106
    62.4671     6020
    62.5327     6108
    62.5984     6216
    62.6640     6064
    62.7297     6197
    62.7953     6132
    62.8610     6233
    62.9266     6131
    62.9923     6187
    63.0579     6212
    63.1236     6362
    63.1892     6834
    63.2549     7365
    63.3205     6787
    63.3862     7047
    63.4518     7647
    63.5175     7747
    63.5831     6769
    63.6488     7103
    63.7145     6805
    63.7801     6452
    63.8458     6336
    63.9114     6052
    63.9771     6211
    64.0427     6087
    64.1084     6137
    64.1740     6305
    64.2397     6689
    64.3053     7362
    64.3710     6527
    64.4366     6271
    64.5023     6727
    64.5679     6266
    64.6336     6024
    64.6992     6092
    64.7649     6177
    64.8305     6092
    64.8962     6052
    64.9618     6106
    65.0275     6258
    65.0931     6074
    65.1588     6079
    65.2244     6117
    65.2901     6183
    65.3557     6128
    65.4214     6176
    65.4870     6069
    65.5527     6047
    65.6183     6144
    65.6840     5991
    65.7496     5855
    65.8153     5883
    65.8810     5910
    65.9466     5920
    66.0123     5896
    66.0779     5933
    66.1436     6198
    66.2092     6084
    66.2749     6105
    66.3405     5938
    66.4062     6008
    66.4718     6187
    66.5375     6044
    66.6031     5845
    66.6688     6022
    66.7344     6128
    66.8001     6023
    66.8657     5970
    66.9314     5926
    66.9970     6104
    67.0627     6174
    67.1283     5910
    67.1940     5925
    67.2596     5855
    67.3253     5911
    67.3909     6128
    67.4566     6099
    67.5222     6088
    67.5879     6086
    67.6535     6097
    67.7192     6047
    67.7848     5967
    67.8505     6168
    67.9161     5992
    67.9818     5890
    68.0474     5947
    68.1131     5963
    68.1787     6022
    68.2444     6135
    68.3101     6045
    68.3757     6072
    68.4414     6122
    68.5070     5950
    68.5727     6015
    68.6383     6057
    68.7040     6197
    68.7696     6471
    68.8353     6769
    68.9009     7102
    68.9666     7048
    69.0322     6566
    69.0979     6817
    69.1635     6927
    69.2292     8117
    69.2948     7270
    69.3605     7723
    69.4261     8315
    69.4918     7916
    69.5574     7195
    69.6231     6875
    69.6887     6759
    69.7544     6676
    69.8200     7341
    69.8857     7210
    69.9513     6337
    70.0170     6745
    70.0826     6799
    70.1483     6301
    70.2139     6168
    70.2796     6164
    70.3452     6040
    70.4109     6244
    70.4765     6360
    70.5422     6792
    70.6078     6612
    70.6735     6990
    70.7392     6766
    70.8048     6307
    70.8705     6522
    70.9361     6334
    71.0018     6019
    71.0674     6078
    71.1331     6052
    71.1987     5886
    71.2644     6033
    71.3300     5917
    71.3957     5976
    71.4613     6190
    71.5270     6067
    71.5926     6296
    71.6583     6390
    71.7239     6369
    71.7896     6406
    71.8552     7467
    71.9209     8489
    71.9865     7404
    72.0522     6919
    72.1178     7185
    72.1835     6648
    72.2491     6088
    72.3148     6220
    72.3804     6185
    72.4461     6026
    72.5117     6185
    72.5774     6660
    72.6430     6247
    72.7087     6058
    72.7743     6393
    72.8400     6041
    72.9057     6212
    72.9713     6146
    73.0370     6112
    73.1026     6235
    73.1683     6630
    73.2339     7050
    73.2996     7047
    73.3652     6365
    73.4309     6542
    73.4965     6683
    73.5622     6223
    73.6278     6188
    73.6935     6017
    73.7591     6131
    73.8248     6281
    73.8904     5997
    73.9561     6126
    74.0217     6722
    74.0874     6958
    74.1530     7050
    74.2187     7279
    74.2843     7006
    74.3500     6787
    74.4156     6781
    74.4813     6435
    74.5469     6387
    74.6126     6200
    74.6782     6228
    74.7439     6018
    74.8095     5984
    74.8752     6144
    74.9408     5939
    75.0065     5864
    75.0722     6099
    75.1378     6121
    75.2035     5798
    75.2691     5855
    75.3348     5987
    75.4004     6059
    75.4661     5881
    75.5317     5881
    75.5974     6028
    75.6630     6114
    75.7287     6400
    75.7943     6287
    75.8600     6070
    75.9256     6244
    75.9913     6102
    76.0569     5903
    76.1226     6029
    76.1882     5918
    76.2539     5966
    76.3195     5969
    76.3852     6015
    76.4508     6220
    76.5165     6379
    76.5821     6221
    76.6478     6820
    76.7134     7261
    76.7791     6811
    76.8447     7008
    76.9104     7487
    76.9760     6619
    77.0417     6229
    77.1073     6755
    77.1730     6181
    77.2386     6160
    77.3043     6067
    77.3699     5957
    77.4356     6371
    77.5013     7112
    77.5669     6482
    77.6326     6094
    77.6982     6314
    77.7639     6480
    77.8295     5987
    77.8952     6006
    77.9608     5868
    78.0265     5839
    78.0921     5612
    78.1578     5843
    78.2234     5834
    78.2891     6062
    78.3547     5959
    78.4204     5887
    78.4860     5917
    78.5517     5893
    78.6173     6121
    78.6830     6090
    78.7486     6056
    78.8143     6277
    78.8799     6797
    78.9456     6955
    79.0112     6817
    79.0769     6537
    79.1425     6564
    79.2082     6679
    79.2738     6428
    79.3395     6328
    79.4051     6188
    79.4708     6190
    79.5364     6252
    79.6021     6643
    79.6677     6904
    79.7334     6403
    79.7990     6544
    79.8647     6961
    79.9304     6497
    79.9960     6210
    80.0617     6261
    80.1273     6145
    80.1930     6108
    80.2586     5961
    80.3243     5894
    80.3899     5978
    80.4556     6177
    80.5212     6603
    80.5869     7004
    80.6525     6661
    80.7182     6716
    80.7838     6936
    80.8495     6826
    80.9151     6334
    80.9808     6309
    81.0464     6219
    81.1121     6710
    81.1777     6363
    81.2434     6288
    81.3090     6579
    81.3747     6911
    81.4403     6705
    81.5060     6176
    81.5716     6378
    81.6373     6427
    81.7029     6144
    81.7686     6199
    81.8342     6087
    81.8999     5806
    81.9655     5974
    82.0312     5870
    82.0968     6069
    82.1625     6301
    82.2281     6261
    82.2938     5955
    82.3595     6050
    82.4251     6125
    82.4908     6329
    82.5564     6237
    82.6221     5924
    82.6877     6041
    82.7534     6036
    82.8190     6103
    82.8847     6193
    82.9503     6477
    83.0160     6259
    83.0816     6062
    83.1473     5986
    83.2129     6096
    83.2786     5966
    83.3442     5929
    83.4099     5881
    83.4755     5756
    83.5412     5793
    83.6068     5874
    83.6725     5724
    83.7381     5793
    83.8038     5898
    83.8694     5759
    83.9351     5797
    84.0007     5876
    84.0664     5631
    84.1320     5923
    84.1977     5996
    84.2633     5837
    84.3290     6006
    84.3946     6078
    84.4603     6287
    84.5260     6426
    84.5916     6363
    84.6573     6088
    84.7229     6077
    84.7886     6106
    84.8542     5995
    84.9199     5915
    84.9855     5819
    85.0512     5815
    85.1168     5745
    85.1825     5949
    85.2481     5974
    85.3138     5950
    85.3794     5792
    85.4451     5893
    85.5107     5767
    85.5764     5738
    85.6420     5852
    85.7077     6123
    85.7733     6161
    85.8390     6009
    85.9046     5886
    85.9703     6124
    86.0359     5802
    86.1016     5797
    86.1672     5965
    86.2329     6191
    86.2985     6014
    86.3642     6054
    86.4298     6130
    86.4955     6167
    86.5611     6192
    86.6268     5974
    86.6925     6236
    86.7581     7198
    86.8238     6952
    86.8894     6445
    86.9551     6606
    87.0207     6776
    87.0864     6737
    87.1520     6391
    87.2177     6102
    87.2833     6108
    87.3490     6007
    87.4146     5988
    87.4803     5935
    87.5459     5860
    87.6116     5962
    87.6772     6110
    87.7429     5913
    87.8085     6150
    87.8742     6295
    87.9398     6349
    88.0055     6364
    88.0711     6216
    88.1368     6064
    88.2024     6069
    88.2681     6043
    88.3337     6182
    88.3994     5987
    88.4650     5814
    88.5307     5917
    88.5963     6359
    88.6620     6378
    88.7276     6178
    88.7933     6223
    88.8589     6311
    88.9246     6266
    88.9902     6244
    89.0559     6124
    89.1216     6390
    89.1872     6307
    89.2529     6407
    89.3185     6562
    89.3842     6555
    89.4498     6818
    89.5155     6187
    89.5811     6174
    89.6468     6366
    89.7124     6477
    89.7781     6915
    89.8437     6074
    89.9094     5974
    89.9750     5788
    90.0407     6162
    90.1063     5947
    90.1720     5882
    90.2376     5842
    90.3033     5872
    90.3689     5739
    90.4346     5765
    90.5002     5937
    90.5659     5932
    90.6315     5757
    90.6972     5938
    90.7628     5891
    90.8285     5958
    90.8941     5971
    90.9598     5747
    91.0254     6022
    91.0911     6025
    91.1567     6224
    91.2224     6055
    91.2880     5912
    91.3537     6158
    91.4193     6071
    91.4850     6240
    91.5507     6282
    91.6163     6262
    91.6820     5883
    91.7476     5969
    91.8133     6244
    91.8789     6313
    91.9446     6282
    92.0102     6194
    92.0759     6358
    92.1415     6764
    92.2072     6680
    92.2728     6198
    92.3385     6172
    92.4041     6025
    92.4698     6171
    92.5354     6044
    92.6011     5731
    92.6667     5858
    92.7324     5855
    92.7980     5952
    92.8637     5961
    92.9293     5684
    92.9950     5948
    93.0606     5814
    93.1263     5857
    93.1919     5966
    93.2576     5928
    93.3232     5812
    93.3889     5879
    93.4545     5847
    93.5202     5854
    93.5858     6061
    93.6515     6314
    93.7171     6397
    93.7828     6091
    93.8484     6137
    93.9141     6025
    93.9798     6052
    94.0454     5962
    94.1111     5942
    94.1767     5766
    94.2424     5846
    94.3080     5841
    94.3737     6160
    94.4393     6298
    94.5050     6148
    94.5706     6406
    94.6363     6117
    94.7019     6171
    94.7676     6147
    94.8332     6213
    94.8989     6321
    94.9645     6234
    95.0302     5968
    95.0958     5952
    95.1615     5962
    95.2271     6083
    95.2928     6326
    95.3584     6485
    95.4241     6123
    95.4897     5934
    95.5554     5932
    95.6210     6268
    95.6867     6570
    95.7523     6429
    95.8180     5927
    95.8836     5854
    95.9493     5850
    96.0149     6052
    96.0806     5842
    96.1463     5884
    96.2119     5722
    96.2776     5735
    96.3432     5867
    96.4089     5805
    96.4745     5845
    96.5402     5783
    96.6058     5771
    96.6715     5831
    96.7371     5820
    96.8028     5763
    96.8684     6031
    96.9341     5854
    96.9997     6146
    97.0654     6017
    97.1310     6122
    97.1967     6070
    97.2623     5999
    97.3280     6150
    97.3936     6022
    97.4593     5769
    97.5249     5983
    97.5906     6077
    97.6562     6015
    97.7219     5730
    97.7875     5728
    97.8532     5798
    97.9188     5991
    97.9845     5734
    98.0501     5589
    98.1158     5729
    98.1814     5779
    98.2471     5928
    98.3128     5895
    98.3784     6034
    98.4441     6113
    98.5097     6130
    98.5754     5913
    98.6410     6174
    98.7067     5817
    98.7723     5921
    98.8380     6053
    98.9036     5806
    98.9693     5880
    99.0349     5814
    99.1006     5815
    99.1662     5799
    99.2319     5749
    99.2975     5626
    99.3632     5795
    99.4288     5909
    99.4945     5720
    99.5601     5776
    99.6258     5822
    99.6914     5686
    99.7571     5759
    99.8227     5793
    99.8884     5783
    99.9540     5853
    99.9934     5770