File: powder_X-ray_diffraction/variable-temperature_experiments/NaNbO2F2/raw_data/25°C.XY
! Initial file:   D:\ZAKARY_OUAIL\MA_THESE\Deuxième_année_de_thèse\DRX\Affinement_DRX\Fullprof\Thermodiff3-nuit_NaNbO2F2\25°C\NaNbO2F2-Lent_25°C.xrdml
! Initial format:  58
! WAVE (A):      1.54060     1.54060     1.00000
! REM : data have been multiplied by     1.0000
! X_data : 2 Theta (deg.)
! Y_data : Intensity (arb. units)
!     X         Y
!--------------------------------------------------------------------------------
    10.0116     8374
    10.0772     8315
    10.1429     8552
    10.2086     8497
    10.2742     8401
    10.3399     8278
    10.4055     8224
    10.4712     8418
    10.5368     8480
    10.6025     8143
    10.6681     8273
    10.7338     8472
    10.7994     8248
    10.8651     8632
    10.9307     8710
    10.9964     8803
    11.0620     9160
    11.1277    10559
    11.1933    17685
    11.2590    68974
    11.3246    38053
    11.3903    10030
    11.4559     8707
    11.5216     8493
    11.5872     8438
    11.6529     8362
    11.7185     8275
    11.7842     8547
    11.8498     8619
    11.9155     8367
    11.9811     8582
    12.0468     8497
    12.1124     8605
    12.1781     8666
    12.2437     8621
    12.3094     8745
    12.3750     8651
    12.4407     8640
    12.5063     8608
    12.5720     8550
    12.6377     8404
    12.7033     8640
    12.7690     8561
    12.8346     8643
    12.9003     8560
    12.9659     8435
    13.0316     8352
    13.0972     8446
    13.1629     8535
    13.2285     8555
    13.2942     8574
    13.3598     8525
    13.4255     8206
    13.4911     8139
    13.5568     8290
    13.6224     8265
    13.6881     8541
    13.7537     8339
    13.8194     8254
    13.8850     8129
    13.9507     8340
    14.0163     8450
    14.0820     8350
    14.1476     8278
    14.2133     8531
    14.2789     8224
    14.3446     8326
    14.4102     8186
    14.4759     9077
    14.5415     9813
    14.6072     8675
    14.6728     8230
    14.7385     8040
    14.8041     8090
    14.8698     8533
    14.9355     8273
    15.0011     8197
    15.0668     8237
    15.1324     8100
    15.1981     8236
    15.2637     8210
    15.3294     8286
    15.3950     8010
    15.4607     7888
    15.5263     7936
    15.5920     8147
    15.6576     7875
    15.7233     7888
    15.7889     7992
    15.8546     8174
    15.9202     7889
    15.9859     7942
    16.0515     7851
    16.1172     8151
    16.1828     7894
    16.2485     7986
    16.3141     7783
    16.3798     7999
    16.4454     7926
    16.5111     8135
    16.5767     7854
    16.6424     7820
    16.7080     7957
    16.7737     8319
    16.8393     8344
    16.9050     8197
    16.9706     7643
    17.0363     7820
    17.1019     7571
    17.1676     7759
    17.2333     7716
    17.2989     7775
    17.3646     7750
    17.4302     7797
    17.4959     7796
    17.5615     7805
    17.6272     7698
    17.6928     7740
    17.7585     7531
    17.8241     7643
    17.8898     7573
    17.9554     7645
    18.0211     7874
    18.0867     7699
    18.1524     7573
    18.2180     7504
    18.2837     7513
    18.3493     7528
    18.4150     7504
    18.4806     7387
    18.5463     7515
    18.6119     7603
    18.6776     7538
    18.7432     7536
    18.8089     7651
    18.8745     7375
    18.9402     7521
    19.0058     7495
    19.0715     7330
    19.1371     7577
    19.2028     7690
    19.2684     7907
    19.3341     7611
    19.3997     7905
    19.4654     7710
    19.5311     7727
    19.5967     8028
    19.6624     8230
    19.7280     8908
    19.7937    11017
    19.8593    26691
    19.9250    87887
    19.9906    45212
    20.0563    11695
    20.1219     9008
    20.1876     8244
    20.2532     8099
    20.3189     7843
    20.3845     7505
    20.4502     7622
    20.5158     7522
    20.5815     7741
    20.6471     7584
    20.7128     7595
    20.7784     7645
    20.8441     7621
    20.9097     7637
    20.9754     7694
    21.0410     7426
    21.1067     7477
    21.1723     7532
    21.2380     7583
    21.3036     7578
    21.3693     7572
    21.4349     7796
    21.5006     7816
    21.5662     7422
    21.6319     7642
    21.6975     7730
    21.7632     7681
    21.8288     7727
    21.8945     7790
    21.9602     7717
    22.0258     7714
    22.0915     7448
    22.1571     7694
    22.2228     7303
    22.2884     7558
    22.3541     7733
    22.4197     7785
    22.4854     8038
    22.5510     8429
    22.6167    12971
    22.6823    33679
    22.7480    19882
    22.8136     8609
    22.8793     7873
    22.9449     7645
    23.0106     7635
    23.0762     7396
    23.1419     7567
    23.2075     7578
    23.2732     7547
    23.3388     7724
    23.4045     7827
    23.4701     7595
    23.5358     7680
    23.6014     7797
    23.6671     7912
    23.7327     9092
    23.7984    23487
    23.8640    23372
    23.9297    11191
    23.9953     8640
    24.0610     8777
    24.1266    13716
    24.1923    35014
    24.2580    20167
    24.3236     8880
    24.3893     8259
    24.4549     8158
    24.5206     7755
    24.5862     7680
    24.6519     7618
    24.7175     7540
    24.7832     7562
    24.8488     7481
    24.9145     7539
    24.9801     7425
    25.0458     7458
    25.1114     7490
    25.1771     7589
    25.2427     7464
    25.3084     7651
    25.3740     7487
    25.4397     7385
    25.5053     7514
    25.5710     7418
    25.6366     7529
    25.7023     7351
    25.7679     7347
    25.8336     7313
    25.8992     7446
    25.9649     7513
    26.0305     7516
    26.0962     7383
    26.1618     7471
    26.2275     7592
    26.2931     7147
    26.3588     7107
    26.4244     7226
    26.4901     7365
    26.5558     7268
    26.6214     7274
    26.6871     7216
    26.7527     7261
    26.8184     7152
    26.8840     7234
    26.9497     7197
    27.0153     7497
    27.0810     7254
    27.1466     7475
    27.2123     7438
    27.2779     7345
    27.3436     7531
    27.4092     7537
    27.4749     7335
    27.5405     7347
    27.6062     7512
    27.6718     7435
    27.7375     7709
    27.8031     7951
    27.8688     8801
    27.9344     9972
    28.0001    15361
    28.0657    54670
    28.1314    73780
    28.1970    39905
    28.2627    12446
    28.3283     9391
    28.3940     8098
    28.4596     8264
    28.5253     9072
    28.5909     8560
    28.6566     7882
    28.7222     7843
    28.7879     7776
    28.8536     7816
    28.9192     8476
    28.9849    13170
    29.0505    40158
    29.1162    26159
    29.1818    10151
    29.2475     9111
    29.3131    12050
    29.3788    13121
    29.4444    13978
    29.5101    10553
    29.5757     7748
    29.6414     7359
    29.7070     7258
    29.7727     7333
    29.8383     7349
    29.9040     7038
    29.9696     6952
    30.0353     6877
    30.1009     6942
    30.1666     7099
    30.2322     7108
    30.2979     7009
    30.3635     7141
    30.4292     7095
    30.4948     6927
    30.5605     7106
    30.6261     7248
    30.6918     6899
    30.7574     7013
    30.8231     6933
    30.8887     6879
    30.9544     6963
    31.0200     6886
    31.0857     7036
    31.1514     6814
    31.2170     6768
    31.2827     7028
    31.3483     6957
    31.4140     6817
    31.4796     6884
    31.5453     6911
    31.6109     7073
    31.6766     6964
    31.7422     6844
    31.8079     7020
    31.8735     6851
    31.9392     6891
    32.0048     6828
    32.0705     6928
    32.1361     6860
    32.2018     6877
    32.2674     6861
    32.3331     6789
    32.3987     6970
    32.4644     6922
    32.5300     6942
    32.5957     6898
    32.6613     6894
    32.7270     6961
    32.7926     7076
    32.8583     7196
    32.9239     7609
    32.9896     9074
    33.0552    23264
    33.1209    19324
    33.1865    13508
    33.2522     7924
    33.3178     7137
    33.3835     6995
    33.4492     6956
    33.5148     6941
    33.5805     6928
    33.6461     7086
    33.7118     7148
    33.7774     7847
    33.8431    13584
    33.9087    11798
    33.9744    10494
    34.0400     7796
    34.1057     7536
    34.1713     7226
    34.2370     7796
    34.3026    13063
    34.3683    10300
    34.4339     9004
    34.4996     7050
    34.5652     6879
    34.6309     6838
    34.6965     6728
    34.7622     6495
    34.8278     6686
    34.8935     6925
    34.9591     6993
    35.0248     8739
    35.0904    11249
    35.1561     9501
    35.2217     7605
    35.2874     7438
    35.3530     7272
    35.4187     6872
    35.4843     6578
    35.5500     6650
    35.6156     6740
    35.6813     6590
    35.7470     6700
    35.8126     6616
    35.8783     6565
    35.9439     6594
    36.0096     6485
    36.0752     6580
    36.1409     6632
    36.2065     6511
    36.2722     6538
    36.3378     6828
    36.4035     6836
    36.4691     8524
    36.5348     8670
    36.6004     8347
    36.6661     6870
    36.7317     6486
    36.7974     6639
    36.8630     6642
    36.9287     6735
    36.9943     6429
    37.0600     6546
    37.1256     6550
    37.1913     6245
    37.2569     6661
    37.3226     6418
    37.3882     6473
    37.4539     6568
    37.5195     6546
    37.5852     6629
    37.6508     6834
    37.7165     7685
    37.7821     7440
    37.8478     9792
    37.9134    13873
    37.9791    11315
    38.0448     9056
    38.1104     7027
    38.1761     6813
    38.2417     6606
    38.3074     6622
    38.3730     6490
    38.4387     6395
    38.5043     6359
    38.5700     6435
    38.6356     6549
    38.7013     6550
    38.7669     6518
    38.8326     6572
    38.8982     6626
    38.9639     6455
    39.0295     6543
    39.0952     6370
    39.1608     6321
    39.2265     6647
    39.2921     7769
    39.3578     8899
    39.4234     7857
    39.4891     6964
    39.5547     6550
    39.6204     6632
    39.6860     6576
    39.7517     6316
    39.8173     6557
    39.8830     6462
    39.9486     6346
    40.0143     6430
    40.0799     6389
    40.1456     6500
    40.2112     6895
    40.2769     6942
    40.3425     6870
    40.4082     6802
    40.4739     8244
    40.5395     8543
    40.6052     7954
    40.6708     6997
    40.7365     6558
    40.8021     6593
    40.8678     6281
    40.9334     6540
    40.9991     6517
    41.0647     6603
    41.1304     6829
    41.1960     8116
    41.2617     7398
    41.3273     9142
    41.3930    12360
    41.4586     9931
    41.5243     9042
    41.5899     6926
    41.6556     6611
    41.7212     6437
    41.7869     6372
    41.8525     6585
    41.9182     6524
    41.9838     6432
    42.0495     6510
    42.1151     6289
    42.1808     6461
    42.2464     6420
    42.3121     6488
    42.3777     6331
    42.4434     6386
    42.5090     6621
    42.5747     6350
    42.6404     6260
    42.7060     6408
    42.7717     6528
    42.8373     6506
    42.9030     6316
    42.9686     6258
    43.0343     6202
    43.0999     6461
    43.1656     6256
    43.2312     6340
    43.2969     6393
    43.3625     6209
    43.4282     6292
    43.4938     6561
    43.5595     6304
    43.6251     6539
    43.6908     7060
    43.7564     7818
    43.8221     7086
    43.8877     7076
    43.9534     6535
    44.0190     6410
    44.0847     6376
    44.1503     6229
    44.2160     6513
    44.2816     6537
    44.3473     6572
    44.4129     6489
    44.4786     6506
    44.5442     6479
    44.6099     6733
    44.6755     6775
    44.7412     6899
    44.8068     8073
    44.8725    13278
    44.9381     9520
    45.0038     9801
    45.0695     7396
    45.1351     6484
    45.2008     6426
    45.2664     6422
    45.3321     6312
    45.3977     6172
    45.4634     6314
    45.5290     6242
    45.5947     6340
    45.6603     6180
    45.7260     6343
    45.7916     6388
    45.8573     6497
    45.9229     6308
    45.9886     6549
    46.0542     6596
    46.1199     6812
    46.1855     6963
    46.2512     8486
    46.3168    19506
    46.3825    13747
    46.4481    13869
    46.5138     9162
    46.5794     6694
    46.6451     6406
    46.7107     6394
    46.7764     6500
    46.8420     6394
    46.9077     6433
    46.9733     6345
    47.0390     6335
    47.1046     6392
    47.1703     6242
    47.2359     6403
    47.3016     6630
    47.3673     6380
    47.4329     6364
    47.4986     6569
    47.5642     6734
    47.6299     7876
    47.6955    12621
    47.7612    10602
    47.8268    10208
    47.8925     8385
    47.9581     7051
    48.0238     7007
    48.0894     6615
    48.1551     6724
    48.2207     6995
    48.2864     7511
    48.3520     9881
    48.4177    16641
    48.4833    13011
    48.5490    12344
    48.6146     9478
    48.6803     7299
    48.7459     7493
    48.8116     8085
    48.8772     7714
    48.9429     7537
    49.0085     7123
    49.0742     6824
    49.1398     6756
    49.2055     6799
    49.2711     7057
    49.3368     7416
    49.4024     9884
    49.4681    16435
    49.5337    13364
    49.5994    13513
    49.6651     9790
    49.7307     7853
    49.7964     6930
    49.8620     6980
    49.9277     7197
    49.9933     7971
    50.0590    14312
    50.1246    16862
    50.1903    11719
    50.2559    12071
    50.3216     7857
    50.3872     6946
    50.4529     6688
    50.5185     6494
    50.5842     6460
    50.6498     6566
    50.7155     7040
    50.7811     8270
    50.8468     7767
    50.9124     7925
    50.9781     7829
    51.0437     8795
    51.1094     7858
    51.1750     7553
    51.2407     7315
    51.3063     6399
    51.3720     6499
    51.4376     6492
    51.5033     6455
    51.5689     6485
    51.6346     6477
    51.7002     7124
    51.7659    10116
    51.8315    11603
    51.8972     8708
    51.9628    10301
    52.0285     8732
    52.0942     7352
    52.1598     8410
    52.2255     6875
    52.2911     7019
    52.3568     6496
    52.4224     6392
    52.4881     6351
    52.5537     6469
    52.6194     6446
    52.6850     7830
    52.7507     6722
    52.8163     7083
    52.8820     6715
    52.9476     6292
    53.0133     6214
    53.0789     6354
    53.1446     6084
    53.2102     6286
    53.2759     6470
    53.3415     6064
    53.4072     6192
    53.4728     6558
    53.5385     6269
    53.6041     6327
    53.6698     6372
    53.7354     6239
    53.8011     6263
    53.8667     6294
    53.9324     6130
    53.9980     6131
    54.0637     6148
    54.1293     6393
    54.1950     6119
    54.2607     6259
    54.3263     6386
    54.3920     6275
    54.4576     6225
    54.5233     6286
    54.5889     6239
    54.6546     6252
    54.7202     6106
    54.7859     6185
    54.8515     6207
    54.9172     6359
    54.9828     6386
    55.0485     6339
    55.1141     6286
    55.1798     6281
    55.2454     6196
    55.3111     6281
    55.3767     6265
    55.4424     6236
    55.5080     6697
    55.5737     8262
    55.6393     6600
    55.7050     7189
    55.7706     6774
    55.8363     6443
    55.9019     6782
    55.9676     6884
    56.0332     8372
    56.0989    11214
    56.1645    10626
    56.2302     9007
    56.2958     9080
    56.3615     7219
    56.4271     7189
    56.4928     6952
    56.5584     7183
    56.6241     8363
    56.6898     8743
    56.7554     7098
    56.8211     8179
    56.8867     7443
    56.9524     9073
    57.0180     9573
    57.0837     7329
    57.1493     8243
    57.2150     7021
    57.2806     7008
    57.3463     6647
    57.4119     6739
    57.4776     6618
    57.5432     6545
    57.6089     6472
    57.6745     6477
    57.7402     6245
    57.8058     6280
    57.8715     6431
    57.9371     7282
    58.0028     7687
    58.0684     9344
    58.1341    12000
    58.1997     9265
    58.2654     8933
    58.3310     8202
    58.3967     6694
    58.4623     6405
    58.5280     6189
    58.5936     6305
    58.6593     6221
    58.7249     6254
    58.7906     6516
    58.8562     6687
    58.9219     7061
    58.9876     7598
    59.0532     8434
    59.1189     9209
    59.1845     8183
    59.2502     9597
    59.3158    10711
    59.3815     9486
    59.4471     8844
    59.5128     8522
    59.5784     9201
    59.6441     9888
    59.7097     7586
    59.7754     8166
    59.8410     7414
    59.9067     6407
    59.9723     6685
    60.0380     6752
    60.1036     8037
    60.1693    12278
    60.2349     9009
    60.3006     8501
    60.3662     8824
    60.4319     6829
    60.4975     6216
    60.5632     6209
    60.6288     6288
    60.6945     6163
    60.7601     6534
    60.8258     7074
    60.8914     8694
    60.9571     7446
    61.0227     7246
    61.0884     7857
    61.1540     6689
    61.2197     6432
    61.2854     6492
    61.3510     6417
    61.4167     6568
    61.4823     7031
    61.5480     9228
    61.6136    11560
    61.6793    11778
    61.7449    11496
    61.8106     9455
    61.8762     8877
    61.9419     7124
    62.0075     6410
    62.0732     6270
    62.1388     6371
    62.2045     6185
    62.2701     6039
    62.3358     6174
    62.4014     5989
    62.4671     6162
    62.5327     6000
    62.5984     5970
    62.6640     6133
    62.7297     5865
    62.7953     6045
    62.8610     5861
    62.9266     6108
    62.9923     6160
    63.0579     6046
    63.1236     5987
    63.1892     5890
    63.2549     5971
    63.3205     6211
    63.3862     6076
    63.4518     6136
    63.5175     6428
    63.5831     6568
    63.6488     8390
    63.7145     8457
    63.7801     7323
    63.8458     7503
    63.9114     7042
    63.9771     6417
    64.0427     6139
    64.1084     6264
    64.1740     6091
    64.2397     6009
    64.3053     5991
    64.3710     5994
    64.4366     6120
    64.5023     5984
    64.5679     5892
    64.6336     6136
    64.6992     6362
    64.7649     6825
    64.8305     7084
    64.8962     6441
    64.9618     6593
    65.0275     6616
    65.0931     6205
    65.1588     5976
    65.2244     5859
    65.2901     6057
    65.3557     6004
    65.4214     5953
    65.4870     5987
    65.5527     5907
    65.6183     5916
    65.6840     5952
    65.7496     6060
    65.8153     6166
    65.8810     6014
    65.9466     5905
    66.0123     5881
    66.0779     5919
    66.1436     6058
    66.2092     5801
    66.2749     5933
    66.3405     5986
    66.4062     5815
    66.4718     6109
    66.5375     5968
    66.6031     6118
    66.6688     6340
    66.7344     6056
    66.8001     5935
    66.8657     5966
    66.9314     6014
    66.9970     5992
    67.0627     5998
    67.1283     5962
    67.1940     6018
    67.2596     6008
    67.3253     5861
    67.3909     5963
    67.4566     6010
    67.5222     5826
    67.5879     6003
    67.6535     6151
    67.7192     5873
    67.7848     5899
    67.8505     5714
    67.9161     5914
    67.9818     6090
    68.0474     5997
    68.1131     6150
    68.1787     6053
    68.2444     6000
    68.3101     6109
    68.3757     5995
    68.4414     5999
    68.5070     5850
    68.5727     5985
    68.6383     6014
    68.7040     6141
    68.7696     5922
    68.8353     5898
    68.9009     5901
    68.9666     6016
    69.0322     5896
    69.0979     5984
    69.1635     6032
    69.2292     6233
    69.2948     6750
    69.3605     8040
    69.4261     8394
    69.4918     7719
    69.5574     7330
    69.6231     7444
    69.6887     7665
    69.7544     6755
    69.8200     6632
    69.8857     8179
    69.9513     8812
    70.0170     7228
    70.0826     6978
    70.1483     7293
    70.2139     6556
    70.2796     6075
    70.3452     6097
    70.4109     5905
    70.4765     5938
    70.5422     6040
    70.6078     5993
    70.6735     6054
    70.7392     6125
    70.8048     6239
    70.8705     6102
    70.9361     6262
    71.0018     6653
    71.0674     6626
    71.1331     6348
    71.1987     6330
    71.2644     6395
    71.3300     6183
    71.3957     6175
    71.4613     6297
    71.5270     6139
    71.5926     6140
    71.6583     6065
    71.7239     5981
    71.7896     5833
    71.8552     5910
    71.9209     6039
    71.9865     6084
    72.0522     6348
    72.1178     6644
    72.1835     6660
    72.2491     6867
    72.3148     8216
    72.3804     8024
    72.4461     6748
    72.5117     7115
    72.5774     7022
    72.6430     6516
    72.7087     6131
    72.7743     6000
    72.8400     6022
    72.9057     6321
    72.9713     6378
    73.0370     6033
    73.1026     6102
    73.1683     6125
    73.2339     5956
    73.2996     5942
    73.3652     6041
    73.4309     6053
    73.4965     6150
    73.5622     5982
    73.6278     6098
    73.6935     6357
    73.7591     6325
    73.8248     7116
    73.8904     7283
    73.9561     6512
    74.0217     6428
    74.0874     6522
    74.1530     6571
    74.2187     6113
    74.2843     6179
    74.3500     6157
    74.4156     6216
    74.4813     6204
    74.5469     6406
    74.6126     7006
    74.6782     6683
    74.7439     7791
    74.8095     7554
    74.8752     6763
    74.9408     6734
    75.0065     6680
    75.0722     6182
    75.1378     6244
    75.2035     6187
    75.2691     5943
    75.3348     5889
    75.4004     5971
    75.4661     5837
    75.5317     5854
    75.5974     5871
    75.6630     5890
    75.7287     5755
    75.7943     5898
    75.8600     5865
    75.9256     5994
    75.9913     5988
    76.0569     6088
    76.1226     6135
    76.1882     5865
    76.2539     5880
    76.3195     5900
    76.3852     5939
    76.4508     5898
    76.5165     6046
    76.5821     6146
    76.6478     5874
    76.7134     5874
    76.7791     6034
    76.8447     6012
    76.9104     5956
    76.9760     5988
    77.0417     6367
    77.1073     7049
    77.1730     7003
    77.2386     7029
    77.3043     7556
    77.3699     6925
    77.4356     6387
    77.5013     6846
    77.5669     7360
    77.6326     6638
    77.6982     6116
    77.7639     6277
    77.8295     6414
    77.8952     6369
    77.9608     6270
    78.0265     5822
    78.0921     5876
    78.1578     5957
    78.2234     5731
    78.2891     5829
    78.3547     5908
    78.4204     5734
    78.4860     5739
    78.5517     5794
    78.6173     5669
    78.6830     5811
    78.7486     5692
    78.8143     5804
    78.8799     5869
    78.9456     5970
    79.0112     5932
    79.0769     6060
    79.1425     6029
    79.2082     6107
    79.2738     5959
    79.3395     6021
    79.4051     5921
    79.4708     6238
    79.5364     6308
    79.6021     6854
    79.6677     6896
    79.7334     6428
    79.7990     6581
    79.8647     6795
    79.9304     6972
    79.9960     7103
    80.0617     6900
    80.1273     6750
    80.1930     6537
    80.2586     6559
    80.3243     6280
    80.3899     6203
    80.4556     5941
    80.5212     5921
    80.5869     6150
    80.6525     6279
    80.7182     6147
    80.7838     5974
    80.8495     6104
    80.9151     6077
    80.9808     5970
    81.0464     6078
    81.1121     6742
    81.1777     6394
    81.2434     6453
    81.3090     6395
    81.3747     6865
    81.4403     6777
    81.5060     6346
    81.5716     6339
    81.6373     6377
    81.7029     6284
    81.7686     6407
    81.8342     6731
    81.8999     6875
    81.9655     6597
    82.0312     6380
    82.0968     6294
    82.1625     6261
    82.2281     6056
    82.2938     5830
    82.3595     5825
    82.4251     5932
    82.4908     5900
    82.5564     5906
    82.6221     5819
    82.6877     5917
    82.7534     6062
    82.8190     6195
    82.8847     6239
    82.9503     6237
    83.0160     6180
    83.0816     6197
    83.1473     6272
    83.2129     6730
    83.2786     6792
    83.3442     6323
    83.4099     5997
    83.4755     6120
    83.5412     6280
    83.6068     5988
    83.6725     5737
    83.7381     5954
    83.8038     5942
    83.8694     5824
    83.9351     5727
    84.0007     5905
    84.0664     5740
    84.1320     5857
    84.1977     5756
    84.2633     5928
    84.3290     5771
    84.3946     5688
    84.4603     5776
    84.5260     5759
    84.5916     5955
    84.6573     5937
    84.7229     5941
    84.7886     5888
    84.8542     5834
    84.9199     5942
    84.9855     5863
    85.0512     5728
    85.1168     6237
    85.1825     6326
    85.2481     6543
    85.3138     6002
    85.3794     5912
    85.4451     5977
    85.5107     6283
    85.5764     6113
    85.6420     6069
    85.7077     5827
    85.7733     5896
    85.8390     5911
    85.9046     5986
    85.9703     6158
    86.0359     5932
    86.1016     5845
    86.1672     5903
    86.2329     5855
    86.2985     5883
    86.3642     5875
    86.4298     5920
    86.4955     5790
    86.5611     5831
    86.6268     5669
    86.6925     5959
    86.7581     5832
    86.8238     5939
    86.8894     6084
    86.9551     6580
    87.0207     6657
    87.0864     6309
    87.1520     6188
    87.2177     6332
    87.2833     6725
    87.3490     6708
    87.4146     6218
    87.4803     5954
    87.5459     6442
    87.6116     6756
    87.6772     6648
    87.7429     6159
    87.8085     6179
    87.8742     6088
    87.9398     6215
    88.0055     6106
    88.0711     5853
    88.1368     5916
    88.2024     5919
    88.2681     6011
    88.3337     5864
    88.3994     6013
    88.4650     6158
    88.5307     6165
    88.5963     6251
    88.6620     6541
    88.7276     6298
    88.7933     6064
    88.8589     6274
    88.9246     6844
    88.9902     6386
    89.0559     6174
    89.1216     6042
    89.1872     6329
    89.2529     6401
    89.3185     6171
    89.3842     6223
    89.4498     6340
    89.5155     6298
    89.5811     6632
    89.6468     6421
    89.7124     6169
    89.7781     6134
    89.8437     6139
    89.9094     6580
    89.9750     6985
    90.0407     6799
    90.1063     6435
    90.1720     6031
    90.2376     6190
    90.3033     6249
    90.3689     6179
    90.4346     5993
    90.5002     5835
    90.5659     5793
    90.6315     5821
    90.6972     5596
    90.7628     5845
    90.8285     5751
    90.8941     5837
    90.9598     5788
    91.0254     5804
    91.0911     5919
    91.1567     5796
    91.2224     5922
    91.2880     5787
    91.3537     5760
    91.4193     5656
    91.4850     5747
    91.5507     5712
    91.6163     5747
    91.6820     5897
    91.7476     5836
    91.8133     6024
    91.8789     6164
    91.9446     6079
    92.0102     6009
    92.0759     5928
    92.1415     5935
    92.2072     6199
    92.2728     6291
    92.3385     6340
    92.4041     6350
    92.4698     6379
    92.5354     6707
    92.6011     7048
    92.6667     6702
    92.7324     6482
    92.7980     6470
    92.8637     6203
    92.9293     6261
    92.9950     6270
    93.0606     6103
    93.1263     6009
    93.1919     5702
    93.2576     5756
    93.3232     5870
    93.3889     5832
    93.4545     5738
    93.5202     5996
    93.5858     5889
    93.6515     6105
    93.7171     5768
    93.7828     5661
    93.8484     5773
    93.9141     5706
    93.9798     5779
    94.0454     5852
    94.1111     5792
    94.1767     5708
    94.2424     5826
    94.3080     5751
    94.3737     5912
    94.4393     6329
    94.5050     6339
    94.5706     6287
    94.6363     5979
    94.7019     5840
    94.7676     5960
    94.8332     6120
    94.8989     5836
    94.9645     5910
    95.0302     5649
    95.0958     5939
    95.1615     5829
    95.2271     5888
    95.2928     6160
    95.3584     6194
    95.4241     6249
    95.4897     6279
    95.5554     6273
    95.6210     6211
    95.6867     6304
    95.7523     6647
    95.8180     6598
    95.8836     6551
    95.9493     6054
    96.0149     6066
    96.0806     6118
    96.1463     6087
    96.2119     6144
    96.2776     6136
    96.3432     6271
    96.4089     6161
    96.4745     5979
    96.5402     5903
    96.6058     5867
    96.6715     5802
    96.7371     5823
    96.8028     5808
    96.8684     5596
    96.9341     5789
    96.9997     5579
    97.0654     5755
    97.1310     5584
    97.1967     5731
    97.2623     5790
    97.3280     5648
    97.3936     5666
    97.4593     5762
    97.5249     5863
    97.5906     5996
    97.6562     6170
    97.7219     6263
    97.7875     6210
    97.8532     6363
    97.9188     6133
    97.9845     5898
    98.0501     5918
    98.1158     6047
    98.1814     6145
    98.2471     5954
    98.3128     6011
    98.3784     5754
    98.4441     5752
    98.5097     5851
    98.5754     5820
    98.6410     5906
    98.7067     5824
    98.7723     5847
    98.8380     6125
    98.9036     6005
    98.9693     6241
    99.0349     5930
    99.1006     5792
    99.1662     5874
    99.2319     5878
    99.2975     6243
    99.3632     6093
    99.4288     6019
    99.4945     5755
    99.5601     5741
    99.6258     5857
    99.6914     5719
    99.7571     5723
    99.8227     5699
    99.8884     5633
    99.9540     5604
    99.9934     5708