File: powder_X-ray_diffraction/variable-temperature_experiments/NaNbO2F2/raw_data/270°C.XY
! Initial file:   D:\ZAKARY_OUAIL\MA_THESE\Deuxième_année_de_thèse\DRX\Affinement_DRX\Fullprof\Thermodiff3-nuit_NaNbO2F2\270°C\NaNbO2F2-Lent_270°C.xrdml
! Initial format:  58
! WAVE (A):      1.54060     1.54060     1.00000
! REM : data have been multiplied by     1.0000
! X_data : 2 Theta (deg.)
! Y_data : Intensity (arb. units)
!     X         Y
!--------------------------------------------------------------------------------
    10.0116     7473
    10.0772     7458
    10.1429     7634
    10.2086     7895
    10.2742     7519
    10.3399     7569
    10.4055     7536
    10.4712     7649
    10.5368     7600
    10.6025     7467
    10.6681     7483
    10.7338     7588
    10.7994     7536
    10.8651     7810
    10.9307     7877
    10.9964     8290
    11.0620     9088
    11.1277    12012
    11.1933    31133
    11.2590    76688
    11.3246    14976
    11.3903     8713
    11.4559     8004
    11.5216     7676
    11.5872     7509
    11.6529     7793
    11.7185     7708
    11.7842     8061
    11.8498     7982
    11.9155     7977
    11.9811     7869
    12.0468     7668
    12.1124     7993
    12.1781     8007
    12.2437     8113
    12.3094     7910
    12.3750     7900
    12.4407     8009
    12.5063     7872
    12.5720     8002
    12.6377     7775
    12.7033     8117
    12.7690     7886
    12.8346     7973
    12.9003     7841
    12.9659     7892
    13.0316     8087
    13.0972     8006
    13.1629     8005
    13.2285     7652
    13.2942     7958
    13.3598     7728
    13.4255     7886
    13.4911     7639
    13.5568     7747
    13.6224     7738
    13.6881     8027
    13.7537     7826
    13.8194     7801
    13.8850     7860
    13.9507     7808
    14.0163     7928
    14.0820     7868
    14.1476     7852
    14.2133     7950
    14.2789     7780
    14.3446     7683
    14.4102     7995
    14.4759     8589
    14.5415     9489
    14.6072     8292
    14.6728     7708
    14.7385     7724
    14.8041     7766
    14.8698     7565
    14.9355     7567
    15.0011     7750
    15.0668     7616
    15.1324     7689
    15.1981     7653
    15.2637     7540
    15.3294     7502
    15.3950     7649
    15.4607     7514
    15.5263     7546
    15.5920     7579
    15.6576     7557
    15.7233     7764
    15.7889     7517
    15.8546     7872
    15.9202     7818
    15.9859     7702
    16.0515     7644
    16.1172     7557
    16.1828     7653
    16.2485     7521
    16.3141     7596
    16.3798     7745
    16.4454     7447
    16.5111     7530
    16.5767     7420
    16.6424     7581
    16.7080     7441
    16.7737     8068
    16.8393     7974
    16.9050     7592
    16.9706     7441
    17.0363     7424
    17.1019     7521
    17.1676     7487
    17.2333     7481
    17.2989     7505
    17.3646     7328
    17.4302     7372
    17.4959     7373
    17.5615     7198
    17.6272     7449
    17.6928     7379
    17.7585     7321
    17.8241     7525
    17.8898     7512
    17.9554     7208
    18.0211     7204
    18.0867     7250
    18.1524     7364
    18.2180     7458
    18.2837     7288
    18.3493     7289
    18.4150     7093
    18.4806     7132
    18.5463     7144
    18.6119     7262
    18.6776     7276
    18.7432     7103
    18.8089     7192
    18.8745     7228
    18.9402     7113
    19.0058     7160
    19.0715     7241
    19.1371     7554
    19.2028     7762
    19.2684     7571
    19.3341     7788
    19.3997     7381
    19.4654     7687
    19.5311     7866
    19.5967     8465
    19.6624     9615
    19.7280    18333
    19.7937    82855
    19.8593    64811
    19.9250    14059
    19.9906     9017
    20.0563     8231
    20.1219     7837
    20.1876     7712
    20.2532     7571
    20.3189     7511
    20.3845     7555
    20.4502     7437
    20.5158     7442
    20.5815     7398
    20.6471     7493
    20.7128     7483
    20.7784     7564
    20.8441     7518
    20.9097     7434
    20.9754     7463
    21.0410     7259
    21.1067     7305
    21.1723     7235
    21.2380     7254
    21.3036     7330
    21.3693     7428
    21.4349     7420
    21.5006     7361
    21.5662     7325
    21.6319     7588
    21.6975     7470
    21.7632     7524
    21.8288     7510
    21.8945     7548
    21.9602     7513
    22.0258     7559
    22.0915     7391
    22.1571     7286
    22.2228     7303
    22.2884     7588
    22.3541     7589
    22.4197     7832
    22.4854     9299
    22.5510    26356
    22.6167    26057
    22.6823    10683
    22.7480     7936
    22.8136     7626
    22.8793     7530
    22.9449     7386
    23.0106     7518
    23.0762     7342
    23.1419     7429
    23.2075     7440
    23.2732     7762
    23.3388     7518
    23.4045     7459
    23.4701     7395
    23.5358     7549
    23.6014     7805
    23.6671     7884
    23.7327     8993
    23.7984    26730
    23.8640    21297
    23.9297    10384
    23.9953    10123
    24.0610    29353
    24.1266    29763
    24.1923    12487
    24.2580     8138
    24.3236     7950
    24.3893     7927
    24.4549     7353
    24.5206     7392
    24.5862     7454
    24.6519     7591
    24.7175     7275
    24.7832     7382
    24.8488     7233
    24.9145     7254
    24.9801     7331
    25.0458     7295
    25.1114     7207
    25.1771     7471
    25.2427     7382
    25.3084     7377
    25.3740     7202
    25.4397     7220
    25.5053     7269
    25.5710     7282
    25.6366     7336
    25.7023     7115
    25.7679     7404
    25.8336     7468
    25.8992     7249
    25.9649     7252
    26.0305     7294
    26.0962     7254
    26.1618     7222
    26.2275     7002
    26.2931     7199
    26.3588     7233
    26.4244     7071
    26.4901     7032
    26.5558     7279
    26.6214     7132
    26.6871     7020
    26.7527     7102
    26.8184     6964
    26.8840     7373
    26.9497     7352
    27.0153     7587
    27.0810     7206
    27.1466     7504
    27.2123     7350
    27.2779     7417
    27.3436     7467
    27.4092     7419
    27.4749     7493
    27.5405     7431
    27.6062     7665
    27.6718     8048
    27.7375     8713
    27.8031    10532
    27.8688    20233
    27.9344    90596
    28.0001    60860
    28.0657    21161
    28.1314    10604
    28.1970     8765
    28.2627     8099
    28.3283     7519
    28.3940     7534
    28.4596     7983
    28.5253     8592
    28.5909     8153
    28.6566     7794
    28.7222     7598
    28.7879     7813
    28.8536     8536
    28.9192    17385
    28.9849    33262
    29.0505    22098
    29.1162     9198
    29.1818    12309
    29.2475    14943
    29.3131    13397
    29.3788     9660
    29.4444     8124
    29.5101     7400
    29.5757     7125
    29.6414     6922
    29.7070     7082
    29.7727     7184
    29.8383     7171
    29.9040     7193
    29.9696     6901
    30.0353     7147
    30.1009     6891
    30.1666     7237
    30.2322     7004
    30.2979     7032
    30.3635     6960
    30.4292     7032
    30.4948     6964
    30.5605     7037
    30.6261     6801
    30.6918     6942
    30.7574     6998
    30.8231     6852
    30.8887     6945
    30.9544     6887
    31.0200     6977
    31.0857     6787
    31.1514     6937
    31.2170     6698
    31.2827     6764
    31.3483     6929
    31.4140     6813
    31.4796     6872
    31.5453     7029
    31.6109     6736
    31.6766     6950
    31.7422     7021
    31.8079     6925
    31.8735     6799
    31.9392     6963
    32.0048     6890
    32.0705     6936
    32.1361     6857
    32.2018     6899
    32.2674     6887
    32.3331     6931
    32.3987     7084
    32.4644     7060
    32.5300     7055
    32.5957     6953
    32.6613     7047
    32.7270     7262
    32.7926     8583
    32.8583    15714
    32.9239    12461
    32.9896    19118
    33.0552    13452
    33.1209    10847
    33.1865     7454
    33.2522     7165
    33.3178     7022
    33.3835     7041
    33.4492     6988
    33.5148     7526
    33.5805    11595
    33.6461    13188
    33.7118    11274
    33.7774     7704
    33.8431     7244
    33.9087     7325
    33.9744     7686
    34.0400     7676
    34.1057    11039
    34.1713    11094
    34.2370    10538
    34.3026     7124
    34.3683     6853
    34.4339     6844
    34.4996     6912
    34.5652     6895
    34.6309     6609
    34.6965     6806
    34.7622     8286
    34.8278    12015
    34.8935     9578
    34.9591     7755
    35.0248     7518
    35.0904     7132
    35.1561     6723
    35.2217     6616
    35.2874     6562
    35.3530     6488
    35.4187     6692
    35.4843     6755
    35.5500     6807
    35.6156     6640
    35.6813     6428
    35.7470     6478
    35.8126     6406
    35.8783     6498
    35.9439     6493
    36.0096     6514
    36.0752     6560
    36.1409     6599
    36.2065     6733
    36.2722     6697
    36.3378     6862
    36.4035     6794
    36.4691     9094
    36.5348     8100
    36.6004     8093
    36.6661     6612
    36.7317     6485
    36.7974     6713
    36.8630     6768
    36.9287     6496
    36.9943     6513
    37.0600     6488
    37.1256     6613
    37.1913     6584
    37.2569     6723
    37.3226     6718
    37.3882     6972
    37.4539     7099
    37.5195     7643
    37.5852    10693
    37.6508     9750
    37.7165    11210
    37.7821     7776
    37.8478     7357
    37.9134     6622
    37.9791     6737
    38.0448     6681
    38.1104     6574
    38.1761     6595
    38.2417     6598
    38.3074     6455
    38.3730     6413
    38.4387     6496
    38.5043     6523
    38.5700     6464
    38.6356     6384
    38.7013     6478
    38.7669     6722
    38.8326     6462
    38.8982     6557
    38.9639     6469
    39.0295     6587
    39.0952     6660
    39.1608     9505
    39.2265     7365
    39.2921     7694
    39.3578     6585
    39.4234     6294
    39.4891     6527
    39.5547     6560
    39.6204     6599
    39.6860     6497
    39.7517     6482
    39.8173     6434
    39.8830     6515
    39.9486     6432
    40.0143     6656
    40.0799     6781
    40.1456     7339
    40.2112     9841
    40.2769     8372
    40.3425     8033
    40.4082     6737
    40.4739     6427
    40.5395     6362
    40.6052     6434
    40.6708     6475
    40.7365     6494
    40.8021     6672
    40.8678     6770
    40.9334     7422
    40.9991    10115
    41.0647    11453
    41.1304    11672
    41.1960     8588
    41.2617     7952
    41.3273     6654
    41.3930     6532
    41.4586     6556
    41.5243     6586
    41.5899     6373
    41.6556     6265
    41.7212     6334
    41.7869     6482
    41.8525     6428
    41.9182     6740
    41.9838     6488
    42.0495     6463
    42.1151     6597
    42.1808     6446
    42.2464     6477
    42.3121     6344
    42.3777     6466
    42.4434     6425
    42.5090     6552
    42.5747     6435
    42.6404     6378
    42.7060     6440
    42.7717     6313
    42.8373     6330
    42.9030     6412
    42.9686     6435
    43.0343     6487
    43.0999     6456
    43.1656     6356
    43.2312     6596
    43.2969     6349
    43.3625     6402
    43.4282     6586
    43.4938     7358
    43.5595     7071
    43.6251     7271
    43.6908     6592
    43.7564     6488
    43.8221     6582
    43.8877     6360
    43.9534     6518
    44.0190     6546
    44.0847     6694
    44.1503     6719
    44.2160     6382
    44.2816     6530
    44.3473     6630
    44.4129     6874
    44.4786     8900
    44.5442    13240
    44.6099     9393
    44.6755     9213
    44.7412     6986
    44.8068     6495
    44.8725     6528
    44.9381     6476
    45.0038     6563
    45.0695     6486
    45.1351     6386
    45.2008     6438
    45.2664     6493
    45.3321     6373
    45.3977     6210
    45.4634     6424
    45.5290     6238
    45.5947     6289
    45.6603     6495
    45.7260     6456
    45.7916     6479
    45.8573     6772
    45.9229     7028
    45.9886     8104
    46.0542    19892
    46.1199    12072
    46.1855    14602
    46.2512     8652
    46.3168     7214
    46.3825     7022
    46.4481     6831
    46.5138     6414
    46.5794     6559
    46.6451     6442
    46.7107     6595
    46.7764     6364
    46.8420     6326
    46.9077     6386
    46.9733     6427
    47.0390     6465
    47.1046     6593
    47.1703     6659
    47.2359     6811
    47.3016     7732
    47.3673     9180
    47.4329     7714
    47.4986    10075
    47.5642    12073
    47.6299     8941
    47.6955     9031
    47.7612     7209
    47.8268     6945
    47.8925     6957
    47.9581     7455
    48.0238     9861
    48.0894    20672
    48.1551    12441
    48.2207    13992
    48.2864     8839
    48.3520     6987
    48.4177     6764
    48.4833     6665
    48.5490     6456
    48.6146     6661
    48.6803     7385
    48.7459     7806
    48.8116     7896
    48.8772     7659
    48.9429     7281
    49.0085     7299
    49.0742     7967
    49.1398    13118
    49.2055    12841
    49.2711    12031
    49.3368    11811
    49.4024     8493
    49.4681     8079
    49.5337     7015
    49.5994     6569
    49.6651     6730
    49.7307     7116
    49.7964     7911
    49.8620    13840
    49.9277    16855
    49.9933    11260
    50.0590    11996
    50.1246     7575
    50.1903     6912
    50.2559     6810
    50.3216     6750
    50.3872     7577
    50.4529     6997
    50.5185     7888
    50.5842    10012
    50.6498     9531
    50.7155     8596
    50.7811     7959
    50.8468     6645
    50.9124     6530
    50.9781     6543
    51.0437     6588
    51.1094     6264
    51.1750     6675
    51.2407     6539
    51.3063     6596
    51.3720     6356
    51.4376     6542
    51.5033     7045
    51.5689     8142
    51.6346     9522
    51.7002    15359
    51.7659    10081
    51.8315    10691
    51.8972     7944
    51.9628     6904
    52.0285     6489
    52.0942     6526
    52.1598     6474
    52.2255     6668
    52.2911     6296
    52.3568     6272
    52.4224     6542
    52.4881     6465
    52.5537     6421
    52.6194     6615
    52.6850     8152
    52.7507     6855
    52.8163     7551
    52.8820     6549
    52.9476     6286
    53.0133     6276
    53.0789     6409
    53.1446     6289
    53.2102     6257
    53.2759     6723
    53.3415     6560
    53.4072     6310
    53.4728     6328
    53.5385     6398
    53.6041     6413
    53.6698     6501
    53.7354     6567
    53.8011     6314
    53.8667     6344
    53.9324     6563
    53.9980     6459
    54.0637     6232
    54.1293     6336
    54.1950     6216
    54.2607     6416
    54.3263     6335
    54.3920     6355
    54.4576     6354
    54.5233     6282
    54.5889     6360
    54.6546     6409
    54.7202     6275
    54.7859     6186
    54.8515     6388
    54.9172     6283
    54.9828     6407
    55.0485     6345
    55.1141     6250
    55.1798     6388
    55.2454     6538
    55.3111     6496
    55.3767     6661
    55.4424     7158
    55.5080     9108
    55.5737     8430
    55.6393    10994
    55.7050    13084
    55.7706     8653
    55.8363    10098
    55.9019     7452
    55.9676     7424
    56.0332     6783
    56.0989     6943
    56.1645     6783
    56.2302     8297
    56.2958     8747
    56.3615     7451
    56.4271     8396
    56.4928     7600
    56.5584    10482
    56.6241     8960
    56.6898     7979
    56.7554     8518
    56.8211     7446
    56.8867     6750
    56.9524     6808
    57.0180     6639
    57.0837     6448
    57.1493     6408
    57.2150     6452
    57.2806     6367
    57.3463     6488
    57.4119     6526
    57.4776     6617
    57.5432     6518
    57.6089     6673
    57.6745     8002
    57.7402     9670
    57.8058     8226
    57.8715    10121
    57.9371     9834
    58.0028     7992
    58.0684     8434
    58.1341     6957
    58.1997     6481
    58.2654     6423
    58.3310     6244
    58.3967     6470
    58.4623     7062
    58.5280     7903
    58.5936     7449
    58.6593     7602
    58.7249     9645
    58.7906    10288
    58.8562     9937
    58.9219     9247
    58.9876    10647
    59.0532     8889
    59.1189    10658
    59.1845     8680
    59.2502     7854
    59.3158     7802
    59.3815     6603
    59.4471     6299
    59.5128     6201
    59.5784     6276
    59.6441     6428
    59.7097     6489
    59.7754     6583
    59.8410     6489
    59.9067     7112
    59.9723    10847
    60.0380     9849
    60.1036     7793
    60.1693     9700
    60.2349     7071
    60.3006     6625
    60.3662     6391
    60.4319     6755
    60.4975     8453
    60.5632     7626
    60.6288     7195
    60.6945     7700
    60.7601     6960
    60.8258     6634
    60.8914     6552
    60.9571     6769
    61.0227     6892
    61.0884     8085
    61.1540    12346
    61.2197    13526
    61.2854     9418
    61.3510     9943
    61.4167     8290
    61.4823     6698
    61.5480     6476
    61.6136     6704
    61.6793     7316
    61.7449     6546
    61.8106     6772
    61.8762     6645
    61.9419     6252
    62.0075     6139
    62.0732     6009
    62.1388     6247
    62.2045     6146
    62.2701     6151
    62.3358     6086
    62.4014     6207
    62.4671     5997
    62.5327     6078
    62.5984     6084
    62.6640     6090
    62.7297     6124
    62.7953     6226
    62.8610     6270
    62.9266     6128
    62.9923     6212
    63.0579     6410
    63.1236     6693
    63.1892     7340
    63.2549     6729
    63.3205     6763
    63.3862     6940
    63.4518     7642
    63.5175     7310
    63.5831     6737
    63.6488     7092
    63.7145     6588
    63.7801     6360
    63.8458     6062
    63.9114     6087
    63.9771     6185
    64.0427     6023
    64.1084     6210
    64.1740     6727
    64.2397     7429
    64.3053     6508
    64.3710     6488
    64.4366     6752
    64.5023     6258
    64.5679     6177
    64.6336     6181
    64.6992     6320
    64.7649     6020
    64.8305     5897
    64.8962     6035
    64.9618     6056
    65.0275     6028
    65.0931     6107
    65.1588     6234
    65.2244     6096
    65.2901     5908
    65.3557     6038
    65.4214     6062
    65.4870     5932
    65.5527     6140
    65.6183     5889
    65.6840     6029
    65.7496     5909
    65.8153     6015
    65.8810     5878
    65.9466     6006
    66.0123     5979
    66.0779     5941
    66.1436     6162
    66.2092     6009
    66.2749     5966
    66.3405     6095
    66.4062     5980
    66.4718     6178
    66.5375     5946
    66.6031     6032
    66.6688     5965
    66.7344     5921
    66.8001     5950
    66.8657     6019
    66.9314     6029
    66.9970     6059
    67.0627     6148
    67.1283     5928
    67.1940     5822
    67.2596     6091
    67.3253     6148
    67.3909     5989
    67.4566     6086
    67.5222     5953
    67.5879     6049
    67.6535     6091
    67.7192     6086
    67.7848     6015
    67.8505     5888
    67.9161     5972
    67.9818     5982
    68.0474     5990
    68.1131     6135
    68.1787     6113
    68.2444     6009
    68.3101     6150
    68.3757     6057
    68.4414     5866
    68.5070     6192
    68.5727     5995
    68.6383     6228
    68.7040     6427
    68.7696     6795
    68.8353     7441
    68.9009     7269
    68.9666     6531
    69.0322     6998
    69.0979     6643
    69.1635     7071
    69.2292     8363
    69.2948     8011
    69.3605     7411
    69.4261     7843
    69.4918     7970
    69.5574     6733
    69.6231     6505
    69.6887     6679
    69.7544     6367
    69.8200     7205
    69.8857     7126
    69.9513     6359
    70.0170     6899
    70.0826     6517
    70.1483     6361
    70.2139     6303
    70.2796     6098
    70.3452     6110
    70.4109     6237
    70.4765     6428
    70.5422     6223
    70.6078     6864
    70.6735     6899
    70.7392     6349
    70.8048     6339
    70.8705     6452
    70.9361     5923
    71.0018     6165
    71.0674     6098
    71.1331     5906
    71.1987     6082
    71.2644     6087
    71.3300     6016
    71.3957     6124
    71.4613     6396
    71.5270     6245
    71.5926     6409
    71.6583     6507
    71.7239     6310
    71.7896     6930
    71.8552     8857
    71.9209     7683
    71.9865     6726
    72.0522     7468
    72.1178     7059
    72.1835     6230
    72.2491     6145
    72.3148     6179
    72.3804     6093
    72.4461     6201
    72.5117     6632
    72.5774     6365
    72.6430     6069
    72.7087     6459
    72.7743     6153
    72.8400     6194
    72.9057     6247
    72.9713     6240
    73.0370     6252
    73.1026     6512
    73.1683     7639
    73.2339     6976
    73.2996     6342
    73.3652     6692
    73.4309     6601
    73.4965     6357
    73.5622     5996
    73.6278     6049
    73.6935     6079
    73.7591     6238
    73.8248     6125
    73.8904     6107
    73.9561     6511
    74.0217     6824
    74.0874     7272
    74.1530     6856
    74.2187     6799
    74.2843     7190
    74.3500     6727
    74.4156     6212
    74.4813     6350
    74.5469     6134
    74.6126     6253
    74.6782     6074
    74.7439     6094
    74.8095     6205
    74.8752     6246
    74.9408     5666
    75.0065     5961
    75.0722     6044
    75.1378     5817
    75.2035     6066
    75.2691     5769
    75.3348     5993
    75.4004     5869
    75.4661     5695
    75.5317     5978
    75.5974     5920
    75.6630     6097
    75.7287     6381
    75.7943     6164
    75.8600     6043
    75.9256     6058
    75.9913     6127
    76.0569     6037
    76.1226     6025
    76.1882     6169
    76.2539     6105
    76.3195     5942
    76.3852     6215
    76.4508     6477
    76.5165     6513
    76.5821     6747
    76.6478     7427
    76.7134     6688
    76.7791     6565
    76.8447     7671
    76.9104     6913
    76.9760     6163
    77.0417     6306
    77.1073     6516
    77.1730     6352
    77.2386     6161
    77.3043     6063
    77.3699     6004
    77.4356     6738
    77.5013     7012
    77.5669     6332
    77.6326     6210
    77.6982     6401
    77.7639     6234
    77.8295     6122
    77.8952     5960
    77.9608     5755
    78.0265     5873
    78.0921     5836
    78.1578     5831
    78.2234     5836
    78.2891     5854
    78.3547     5749
    78.4204     5815
    78.4860     5920
    78.5517     6086
    78.6173     6078
    78.6830     5928
    78.7486     6532
    78.8143     6866
    78.8799     6788
    78.9456     6310
    79.0112     6508
    79.0769     6671
    79.1425     6600
    79.2082     6357
    79.2738     6118
    79.3395     6107
    79.4051     6098
    79.4708     6420
    79.5364     6589
    79.6021     7235
    79.6677     6493
    79.7334     6351
    79.7990     6875
    79.8647     7117
    79.9304     6395
    79.9960     6249
    80.0617     6317
    80.1273     6175
    80.1930     6106
    80.2586     6079
    80.3243     5944
    80.3899     6083
    80.4556     6348
    80.5212     7094
    80.5869     6968
    80.6525     6702
    80.7182     6609
    80.7838     6506
    80.8495     6554
    80.9151     6179
    80.9808     6049
    81.0464     6407
    81.1121     6592
    81.1777     6308
    81.2434     6572
    81.3090     7010
    81.3747     6451
    81.4403     6177
    81.5060     6438
    81.5716     6353
    81.6373     6014
    81.7029     6174
    81.7686     6014
    81.8342     5922
    81.8999     6048
    81.9655     6024
    82.0312     6129
    82.0968     6460
    82.1625     6304
    82.2281     5993
    82.2938     6137
    82.3595     6470
    82.4251     6386
    82.4908     6166
    82.5564     5783
    82.6221     5948
    82.6877     6084
    82.7534     6019
    82.8190     6104
    82.8847     6402
    82.9503     6638
    83.0160     5908
    83.0816     5975
    83.1473     6164
    83.2129     6202
    83.2786     5949
    83.3442     5961
    83.4099     5926
    83.4755     5862
    83.5412     5909
    83.6068     5729
    83.6725     5769
    83.7381     5735
    83.8038     5790
    83.8694     5708
    83.9351     5789
    84.0007     5837
    84.0664     5963
    84.1320     5998
    84.1977     6003
    84.2633     5951
    84.3290     6084
    84.3946     6535
    84.4603     6433
    84.5260     6344
    84.5916     6256
    84.6573     6063
    84.7229     6119
    84.7886     6078
    84.8542     6064
    84.9199     5725
    84.9855     5774
    85.0512     5747
    85.1168     5791
    85.1825     5924
    85.2481     5996
    85.3138     5957
    85.3794     5744
    85.4451     5890
    85.5107     5789
    85.5764     5851
    85.6420     5963
    85.7077     6257
    85.7733     5926
    85.8390     5967
    85.9046     5856
    85.9703     5824
    86.0359     6002
    86.1016     5970
    86.1672     5980
    86.2329     6008
    86.2985     5940
    86.3642     6180
    86.4298     6082
    86.4955     5965
    86.5611     6076
    86.6268     6262
    86.6925     6982
    86.7581     7031
    86.8238     6711
    86.8894     6563
    86.9551     6810
    87.0207     6743
    87.0864     6319
    87.1520     6195
    87.2177     6115
    87.2833     6020
    87.3490     6134
    87.4146     5825
    87.4803     5829
    87.5459     5847
    87.6116     6018
    87.6772     6034
    87.7429     6260
    87.8085     6327
    87.8742     6529
    87.9398     6496
    88.0055     6079
    88.0711     6117
    88.1368     5936
    88.2024     6051
    88.2681     6162
    88.3337     5926
    88.3994     5734
    88.4650     5907
    88.5307     6304
    88.5963     6298
    88.6620     6234
    88.7276     6430
    88.7933     6322
    88.8589     6184
    88.9246     6309
    88.9902     6333
    89.0559     6270
    89.1216     6138
    89.1872     6265
    89.2529     6488
    89.3185     6167
    89.3842     6384
    89.4498     6988
    89.5155     6138
    89.5811     6164
    89.6468     6136
    89.7124     6470
    89.7781     6580
    89.8437     6131
    89.9094     5901
    89.9750     5989
    90.0407     6098
    90.1063     6037
    90.1720     5859
    90.2376     5780
    90.3033     5830
    90.3689     5952
    90.4346     5713
    90.5002     5897
    90.5659     5698
    90.6315     5747
    90.6972     5803
    90.7628     5992
    90.8285     5892
    90.8941     5853
    90.9598     6116
    91.0254     6222
    91.0911     5986
    91.1567     5995
    91.2224     5935
    91.2880     6118
    91.3537     6132
    91.4193     6138
    91.4850     6339
    91.5507     6198
    91.6163     6122
    91.6820     6296
    91.7476     6526
    91.8133     6307
    91.8789     6317
    91.9446     6202
    92.0102     6387
    92.0759     6891
    92.1415     6596
    92.2072     6396
    92.2728     5953
    92.3385     6153
    92.4041     6336
    92.4698     5991
    92.5354     5953
    92.6011     5967
    92.6667     5863
    92.7324     6095
    92.7980     5996
    92.8637     5878
    92.9293     5903
    92.9950     5793
    93.0606     5913
    93.1263     5980
    93.1919     5800
    93.2576     5965
    93.3232     5878
    93.3889     5929
    93.4545     5984
    93.5202     6117
    93.5858     6460
    93.6515     5982
    93.7171     5860
    93.7828     6106
    93.8484     6074
    93.9141     6185
    93.9798     5961
    94.0454     5744
    94.1111     5906
    94.1767     5846
    94.2424     5982
    94.3080     6148
    94.3737     6489
    94.4393     6429
    94.5050     6150
    94.5706     6130
    94.6363     6318
    94.7019     6148
    94.7676     6237
    94.8332     6239
    94.8989     5988
    94.9645     5949
    95.0302     5861
    95.0958     6031
    95.1615     6189
    95.2271     6222
    95.2928     6439
    95.3584     6142
    95.4241     5953
    95.4897     6125
    95.5554     6400
    95.6210     6613
    95.6867     6083
    95.7523     5866
    95.8180     5934
    95.8836     5939
    95.9493     5974
    96.0149     6001
    96.0806     5751
    96.1463     5611
    96.2119     5754
    96.2776     5690
    96.3432     5721
    96.4089     5603
    96.4745     5944
    96.5402     5837
    96.6058     5811
    96.6715     5949
    96.7371     6217
    96.8028     5872
    96.8684     6111
    96.9341     6162
    96.9997     5971
    97.0654     5915
    97.1310     6003
    97.1967     6213
    97.2623     6041
    97.3280     5872
    97.3936     5775
    97.4593     6031
    97.5249     6121
    97.5906     6064
    97.6562     5766
    97.7219     5587
    97.7875     5802
    97.8532     5774
    97.9188     5908
    97.9845     5772
    98.0501     5793
    98.1158     6089
    98.1814     6000
    98.2471     6071
    98.3128     6068
    98.3784     5878
    98.4441     6284
    98.5097     5907
    98.5754     6212
    98.6410     6185
    98.7067     6115
    98.7723     5946
    98.8380     5936
    98.9036     5782
    98.9693     5898
    99.0349     5757
    99.1006     5799
    99.1662     5808
    99.2319     5748
    99.2975     5857
    99.3632     5810
    99.4288     5765
    99.4945     5771
    99.5601     5646
    99.6258     5834
    99.6914     5834
    99.7571     5720
    99.8227     5731
    99.8884     5912
    99.9540     5864
    99.9934     5939