File: powder_X-ray_diffraction/variable-temperature_experiments/NaNbO2F2/raw_data/280°C.XY
! Initial file:   D:\ZAKARY_OUAIL\MA_THESE\Deuxième_année_de_thèse\DRX\Affinement_DRX\Fullprof\Thermodiff3-nuit_NaNbO2F2\280°C\NaNbO2F2-Lent_280°C.xrdml
! Initial format:  58
! WAVE (A):      1.54060     1.54060     1.00000
! REM : data have been multiplied by     1.0000
! X_data : 2 Theta (deg.)
! Y_data : Intensity (arb. units)
!     X         Y
!--------------------------------------------------------------------------------
    10.0116     7542
    10.0772     7598
    10.1429     7567
    10.2086     7648
    10.2742     7572
    10.3399     7521
    10.4055     7629
    10.4712     7564
    10.5368     7443
    10.6025     7709
    10.6681     7385
    10.7338     7445
    10.7994     7526
    10.8651     7823
    10.9307     8087
    10.9964     8187
    11.0620     8849
    11.1277    12278
    11.1933    32527
    11.2590    75761
    11.3246    14050
    11.3903     8649
    11.4559     7898
    11.5216     7689
    11.5872     7574
    11.6529     7716
    11.7185     7801
    11.7842     7820
    11.8498     7883
    11.9155     7880
    11.9811     7700
    12.0468     7793
    12.1124     8101
    12.1781     8072
    12.2437     8052
    12.3094     8034
    12.3750     8100
    12.4407     8051
    12.5063     7945
    12.5720     7971
    12.6377     7822
    12.7033     7889
    12.7690     7820
    12.8346     8228
    12.9003     7908
    12.9659     7783
    13.0316     7853
    13.0972     7816
    13.1629     7841
    13.2285     7973
    13.2942     7619
    13.3598     7586
    13.4255     7612
    13.4911     7757
    13.5568     7839
    13.6224     7726
    13.6881     8074
    13.7537     7984
    13.8194     7836
    13.8850     7814
    13.9507     7760
    14.0163     7772
    14.0820     7897
    14.1476     7846
    14.2133     7680
    14.2789     7755
    14.3446     7630
    14.4102     7990
    14.4759     8729
    14.5415     9570
    14.6072     8159
    14.6728     7693
    14.7385     7908
    14.8041     7637
    14.8698     7608
    14.9355     7685
    15.0011     7621
    15.0668     7685
    15.1324     7569
    15.1981     7628
    15.2637     7586
    15.3294     7629
    15.3950     7475
    15.4607     7673
    15.5263     7576
    15.5920     7611
    15.6576     7740
    15.7233     7575
    15.7889     7457
    15.8546     7609
    15.9202     7745
    15.9859     7653
    16.0515     7656
    16.1172     7603
    16.1828     7537
    16.2485     7638
    16.3141     7477
    16.3798     7678
    16.4454     7665
    16.5111     7540
    16.5767     7455
    16.6424     7599
    16.7080     7445
    16.7737     8047
    16.8393     7942
    16.9050     7528
    16.9706     7454
    17.0363     7494
    17.1019     7268
    17.1676     7453
    17.2333     7436
    17.2989     7263
    17.3646     7335
    17.4302     7379
    17.4959     7408
    17.5615     7408
    17.6272     7140
    17.6928     7417
    17.7585     7183
    17.8241     7410
    17.8898     7618
    17.9554     7245
    18.0211     7200
    18.0867     7334
    18.1524     7250
    18.2180     7215
    18.2837     7269
    18.3493     7253
    18.4150     7218
    18.4806     7221
    18.5463     7165
    18.6119     7026
    18.6776     7172
    18.7432     7182
    18.8089     7178
    18.8745     7088
    18.9402     7208
    19.0058     7217
    19.0715     7271
    19.1371     7665
    19.2028     7768
    19.2684     7437
    19.3341     7516
    19.3997     7809
    19.4654     7548
    19.5311     7967
    19.5967     8509
    19.6624     9723
    19.7280    20831
    19.7937    92736
    19.8593    58443
    19.9250    12279
    19.9906     9020
    20.0563     8015
    20.1219     7746
    20.1876     7633
    20.2532     7685
    20.3189     7445
    20.3845     7482
    20.4502     7303
    20.5158     7587
    20.5815     7451
    20.6471     7375
    20.7128     7301
    20.7784     7405
    20.8441     7494
    20.9097     7402
    20.9754     7274
    21.0410     7465
    21.1067     7358
    21.1723     7485
    21.2380     7487
    21.3036     7307
    21.3693     7440
    21.4349     7455
    21.5006     7384
    21.5662     7509
    21.6319     7363
    21.6975     7324
    21.7632     7334
    21.8288     7557
    21.8945     7489
    21.9602     7116
    22.0258     7304
    22.0915     7382
    22.1571     7336
    22.2228     7482
    22.2884     7444
    22.3541     7679
    22.4197     7725
    22.4854     9683
    22.5510    29396
    22.6167    24971
    22.6823     9557
    22.7480     7808
    22.8136     7447
    22.8793     7438
    22.9449     7293
    23.0106     7263
    23.0762     7438
    23.1419     7286
    23.2075     7486
    23.2732     7407
    23.3388     7562
    23.4045     7480
    23.4701     7365
    23.5358     7693
    23.6014     7790
    23.6671     8051
    23.7327     9267
    23.7984    26310
    23.8640    21792
    23.9297     9998
    23.9953    10365
    24.0610    32416
    24.1266    29024
    24.1923    11612
    24.2580     8192
    24.3236     7816
    24.3893     7932
    24.4549     7622
    24.5206     7466
    24.5862     7273
    24.6519     7321
    24.7175     7407
    24.7832     7283
    24.8488     7360
    24.9145     7369
    24.9801     7328
    25.0458     7240
    25.1114     7297
    25.1771     7632
    25.2427     7294
    25.3084     7318
    25.3740     7375
    25.4397     7287
    25.5053     7285
    25.5710     7213
    25.6366     7324
    25.7023     7449
    25.7679     7422
    25.8336     7220
    25.8992     7341
    25.9649     7414
    26.0305     7421
    26.0962     7374
    26.1618     7290
    26.2275     7209
    26.2931     7083
    26.3588     7199
    26.4244     7256
    26.4901     7147
    26.5558     7191
    26.6214     7216
    26.6871     7121
    26.7527     7102
    26.8184     7194
    26.8840     7055
    26.9497     7344
    27.0153     7467
    27.0810     7377
    27.1466     7409
    27.2123     7475
    27.2779     7385
    27.3436     7321
    27.4092     7405
    27.4749     7363
    27.5405     7681
    27.6062     7530
    27.6718     8267
    27.7375     9147
    27.8031    10905
    27.8688    24958
    27.9344    95209
    28.0001    59015
    28.0657    17038
    28.1314     9992
    28.1970     8313
    28.2627     8024
    28.3283     7583
    28.3940     7660
    28.4596     7784
    28.5253     8276
    28.5909     8216
    28.6566     7702
    28.7222     7632
    28.7879     7892
    28.8536     8735
    28.9192    19013
    28.9849    30855
    29.0505    21245
    29.1162     9284
    29.1818    13852
    29.2475    13933
    29.3131    12592
    29.3788     9518
    29.4444     8027
    29.5101     7255
    29.5757     7212
    29.6414     7152
    29.7070     7117
    29.7727     7335
    29.8383     7177
    29.9040     7065
    29.9696     7079
    30.0353     7104
    30.1009     7149
    30.1666     7111
    30.2322     7021
    30.2979     7072
    30.3635     7004
    30.4292     6966
    30.4948     6941
    30.5605     6984
    30.6261     6998
    30.6918     7048
    30.7574     7059
    30.8231     6849
    30.8887     6779
    30.9544     6693
    31.0200     6841
    31.0857     6885
    31.1514     6757
    31.2170     6927
    31.2827     6989
    31.3483     6917
    31.4140     6951
    31.4796     6765
    31.5453     6652
    31.6109     6820
    31.6766     7018
    31.7422     6845
    31.8079     6797
    31.8735     7031
    31.9392     6849
    32.0048     6854
    32.0705     6798
    32.1361     6951
    32.2018     6803
    32.2674     7069
    32.3331     6945
    32.3987     6983
    32.4644     6922
    32.5300     6767
    32.5957     7132
    32.6613     7026
    32.7270     7512
    32.7926     9990
    32.8583    13639
    32.9239    12446
    32.9896    19408
    33.0552    13344
    33.1209    10571
    33.1865     7347
    33.2522     7179
    33.3178     7071
    33.3835     7008
    33.4492     7174
    33.5148     7605
    33.5805    13488
    33.6461    12010
    33.7118    10220
    33.7774     7564
    33.8431     7008
    33.9087     7456
    33.9744     7845
    34.0400     7725
    34.1057    13185
    34.1713    10411
    34.2370     9600
    34.3026     7067
    34.3683     7004
    34.4339     6888
    34.4996     6884
    34.5652     6809
    34.6309     6808
    34.6965     7016
    34.7622     9314
    34.8278    10965
    34.8935     9857
    34.9591     7392
    35.0248     7590
    35.0904     7063
    35.1561     6790
    35.2217     6553
    35.2874     6604
    35.3530     6663
    35.4187     6640
    35.4843     6719
    35.5500     6456
    35.6156     6549
    35.6813     6578
    35.7470     6515
    35.8126     6652
    35.8783     6631
    35.9439     6555
    36.0096     6480
    36.0752     6582
    36.1409     6574
    36.2065     6548
    36.2722     6554
    36.3378     6748
    36.4035     6834
    36.4691     9046
    36.5348     8082
    36.6004     8273
    36.6661     6585
    36.7317     6625
    36.7974     6657
    36.8630     6605
    36.9287     6577
    36.9943     6804
    37.0600     6558
    37.1256     6462
    37.1913     6610
    37.2569     6543
    37.3226     6693
    37.3882     7490
    37.4539     6897
    37.5195     7867
    37.5852    11883
    37.6508     9518
    37.7165    10208
    37.7821     7773
    37.8478     6873
    37.9134     6753
    37.9791     6557
    38.0448     6401
    38.1104     6562
    38.1761     6542
    38.2417     6356
    38.3074     6391
    38.3730     6441
    38.4387     6405
    38.5043     6347
    38.5700     6608
    38.6356     6487
    38.7013     6477
    38.7669     6556
    38.8326     6436
    38.8982     6418
    38.9639     6566
    39.0295     6697
    39.0952     6943
    39.1608     9291
    39.2265     7469
    39.2921     7221
    39.3578     6489
    39.4234     6456
    39.4891     6479
    39.5547     6568
    39.6204     6560
    39.6860     6352
    39.7517     6352
    39.8173     6653
    39.8830     6451
    39.9486     6397
    40.0143     6668
    40.0799     6586
    40.1456     7748
    40.2112    10270
    40.2769     8196
    40.3425     7638
    40.4082     6650
    40.4739     6425
    40.5395     6471
    40.6052     6701
    40.6708     6534
    40.7365     6345
    40.8021     6574
    40.8678     6796
    40.9334     8062
    40.9991    11398
    41.0647    10413
    41.1304    11978
    41.1960     7891
    41.2617     7649
    41.3273     6506
    41.3930     6634
    41.4586     6572
    41.5243     6256
    41.5899     6355
    41.6556     6251
    41.7212     6466
    41.7869     6484
    41.8525     6367
    41.9182     6639
    41.9838     6463
    42.0495     6485
    42.1151     6385
    42.1808     6547
    42.2464     6406
    42.3121     6415
    42.3777     6562
    42.4434     6457
    42.5090     6357
    42.5747     6438
    42.6404     6151
    42.7060     6390
    42.7717     6391
    42.8373     6296
    42.9030     6330
    42.9686     6368
    43.0343     6488
    43.0999     6355
    43.1656     6370
    43.2312     6422
    43.2969     6388
    43.3625     6270
    43.4282     6414
    43.4938     7623
    43.5595     6984
    43.6251     7470
    43.6908     6584
    43.7564     6488
    43.8221     6508
    43.8877     6285
    43.9534     6441
    44.0190     6843
    44.0847     6639
    44.1503     6753
    44.2160     6528
    44.2816     6595
    44.3473     6626
    44.4129     7119
    44.4786    11165
    44.5442    10702
    44.6099    10206
    44.6755     8086
    44.7412     6830
    44.8068     6600
    44.8725     6603
    44.9381     6395
    45.0038     6425
    45.0695     6312
    45.1351     6268
    45.2008     6344
    45.2664     6407
    45.3321     6490
    45.3977     6419
    45.4634     6414
    45.5290     6355
    45.5947     6482
    45.6603     6414
    45.7260     6444
    45.7916     6640
    45.8573     6793
    45.9229     7023
    45.9886     9121
    46.0542    22554
    46.1199    10551
    46.1855    14036
    46.2512     7809
    46.3168     7281
    46.3825     7041
    46.4481     6656
    46.5138     6532
    46.5794     6641
    46.6451     6432
    46.7107     6566
    46.7764     6328
    46.8420     6419
    46.9077     6426
    46.9733     6521
    47.0390     6611
    47.1046     6457
    47.1703     6674
    47.2359     6854
    47.3016     8584
    47.3673     8095
    47.4329     8068
    47.4986    10013
    47.5642    11169
    47.6299     8952
    47.6955     8437
    47.7612     7155
    47.8268     6995
    47.8925     7335
    47.9581     7592
    48.0238    12158
    48.0894    20103
    48.1551    11769
    48.2207    13366
    48.2864     7799
    48.3520     6851
    48.4177     6811
    48.4833     6435
    48.5490     6699
    48.6146     6585
    48.6803     7542
    48.7459     7774
    48.8116     7811
    48.8772     7657
    48.9429     7205
    49.0085     7374
    49.0742     8222
    49.1398    16200
    49.2055    10509
    49.2711    13890
    49.3368     9843
    49.4024     8495
    49.4681     7611
    49.5337     6790
    49.5994     6776
    49.6651     7011
    49.7307     6953
    49.7964     7907
    49.8620    16630
    49.9277    14196
    49.9933    12239
    50.0590    10399
    50.1246     7443
    50.1903     6898
    50.2559     6712
    50.3216     7160
    50.3872     7502
    50.4529     7255
    50.5185     8355
    50.5842    11204
    50.6498     8651
    50.7155     8824
    50.7811     7540
    50.8468     6504
    50.9124     6486
    50.9781     6467
    51.0437     6426
    51.1094     6488
    51.1750     6716
    51.2407     6642
    51.3063     6585
    51.3720     6733
    51.4376     6712
    51.5033     7178
    51.5689     8985
    51.6346     9020
    51.7002    15915
    51.7659     9067
    51.8315    10880
    51.8972     7688
    51.9628     6793
    52.0285     6478
    52.0942     6395
    52.1598     6473
    52.2255     6456
    52.2911     6417
    52.3568     6379
    52.4224     6419
    52.4881     6506
    52.5537     6460
    52.6194     6790
    52.6850     8302
    52.7507     6721
    52.8163     7355
    52.8820     6460
    52.9476     6433
    53.0133     6482
    53.0789     6374
    53.1446     6404
    53.2102     6472
    53.2759     6383
    53.3415     6396
    53.4072     6473
    53.4728     6370
    53.5385     6195
    53.6041     6362
    53.6698     6538
    53.7354     6614
    53.8011     6571
    53.8667     6452
    53.9324     6407
    53.9980     6285
    54.0637     6432
    54.1293     6294
    54.1950     6392
    54.2607     6169
    54.3263     6418
    54.3920     6251
    54.4576     6399
    54.5233     6145
    54.5889     6570
    54.6546     6433
    54.7202     6332
    54.7859     6258
    54.8515     6259
    54.9172     6239
    54.9828     6370
    55.0485     6376
    55.1141     6285
    55.1798     6352
    55.2454     6524
    55.3111     6414
    55.3767     6549
    55.4424     7098
    55.5080     9454
    55.5737     8727
    55.6393    14001
    55.7050    10266
    55.7706     9044
    55.8363     9079
    55.9019     7267
    55.9676     7158
    56.0332     6829
    56.0989     6909
    56.1645     6874
    56.2302     9532
    56.2958     7594
    56.3615     7867
    56.4271     7878
    56.4928     8292
    56.5584    11077
    56.6241     7898
    56.6898     8465
    56.7554     7880
    56.8211     7232
    56.8867     6748
    56.9524     6840
    57.0180     6532
    57.0837     6495
    57.1493     6477
    57.2150     6427
    57.2806     6439
    57.3463     6547
    57.4119     6493
    57.4776     6349
    57.5432     6431
    57.6089     7069
    57.6745     8807
    57.7402     8805
    57.8058     8255
    57.8715    10927
    57.9371     8949
    58.0028     7835
    58.0684     8079
    58.1341     7120
    58.1997     6640
    58.2654     6495
    58.3310     6323
    58.3967     6705
    58.4623     7514
    58.5280     7762
    58.5936     7281
    58.6593     8094
    58.7249    10294
    58.7906    10813
    58.8562     9127
    58.9219     9585
    58.9876     9974
    59.0532     9302
    59.1189    10455
    59.1845     7969
    59.2502     8453
    59.3158     7226
    59.3815     6603
    59.4471     6412
    59.5128     6485
    59.5784     6345
    59.6441     6324
    59.7097     6354
    59.7754     6606
    59.8410     6582
    59.9067     7264
    59.9723    12203
    60.0380     9012
    60.1036     7915
    60.1693     9137
    60.2349     6903
    60.3006     6413
    60.3662     6588
    60.4319     7109
    60.4975     8998
    60.5632     7273
    60.6288     7487
    60.6945     7403
    60.7601     6721
    60.8258     6695
    60.8914     6598
    60.9571     6748
    61.0227     7299
    61.0884    10151
    61.1540    12915
    61.2197    10977
    61.2854     9407
    61.3510    10074
    61.4167     7370
    61.4823     6650
    61.5480     6453
    61.6136     6628
    61.6793     7444
    61.7449     6388
    61.8106     6696
    61.8762     6628
    61.9419     6215
    62.0075     6168
    62.0732     6280
    62.1388     5963
    62.2045     6167
    62.2701     6006
    62.3358     6020
    62.4014     6208
    62.4671     6134
    62.5327     5961
    62.5984     6167
    62.6640     6133
    62.7297     6107
    62.7953     6215
    62.8610     6155
    62.9266     6219
    62.9923     6394
    63.0579     6555
    63.1236     7474
    63.1892     6784
    63.2549     6633
    63.3205     7272
    63.3862     6709
    63.4518     7587
    63.5175     6995
    63.5831     6837
    63.6488     7308
    63.7145     6267
    63.7801     6265
    63.8458     6195
    63.9114     6105
    63.9771     6129
    64.0427     6048
    64.1084     6381
    64.1740     7255
    64.2397     7082
    64.3053     6411
    64.3710     6816
    64.4366     6562
    64.5023     6118
    64.5679     6028
    64.6336     6187
    64.6992     6189
    64.7649     6122
    64.8305     6255
    64.8962     6020
    64.9618     6116
    65.0275     6115
    65.0931     6015
    65.1588     6166
    65.2244     6046
    65.2901     5963
    65.3557     5898
    65.4214     6186
    65.4870     5975
    65.5527     6099
    65.6183     5896
    65.6840     6001
    65.7496     6123
    65.8153     6083
    65.8810     6163
    65.9466     5995
    66.0123     6033
    66.0779     6015
    66.1436     6065
    66.2092     5907
    66.2749     6077
    66.3405     6166
    66.4062     6044
    66.4718     6214
    66.5375     6082
    66.6031     5947
    66.6688     6062
    66.7344     6203
    66.8001     5977
    66.8657     6029
    66.9314     6014
    66.9970     5936
    67.0627     6028
    67.1283     6109
    67.1940     5850
    67.2596     5930
    67.3253     6372
    67.3909     6358
    67.4566     5956
    67.5222     6066
    67.5879     6197
    67.6535     6070
    67.7192     5992
    67.7848     6032
    67.8505     6253
    67.9161     6026
    67.9818     6097
    68.0474     6007
    68.1131     6011
    68.1787     5977
    68.2444     6062
    68.3101     6055
    68.3757     6099
    68.4414     5980
    68.5070     6024
    68.5727     6000
    68.6383     6324
    68.7040     6655
    68.7696     7053
    68.8353     7709
    68.9009     6685
    68.9666     6603
    69.0322     6814
    69.0979     6615
    69.1635     7257
    69.2292     8929
    69.2948     8094
    69.3605     7128
    69.4261     8121
    69.4918     7486
    69.5574     6524
    69.6231     6557
    69.6887     6356
    69.7544     6403
    69.8200     7302
    69.8857     6974
    69.9513     6567
    70.0170     6748
    70.0826     6538
    70.1483     6441
    70.2139     6166
    70.2796     6118
    70.3452     6168
    70.4109     6553
    70.4765     6558
    70.5422     6480
    70.6078     7090
    70.6735     6558
    70.7392     6374
    70.8048     6608
    70.8705     6224
    70.9361     6091
    71.0018     6018
    71.0674     6026
    71.1331     5942
    71.1987     6042
    71.2644     5906
    71.3300     6021
    71.3957     6186
    71.4613     6309
    71.5270     6359
    71.5926     6529
    71.6583     6335
    71.7239     6480
    71.7896     7497
    71.8552     8884
    71.9209     6887
    71.9865     6814
    72.0522     7454
    72.1178     6613
    72.1835     6094
    72.2491     5915
    72.3148     6055
    72.3804     6046
    72.4461     6252
    72.5117     6499
    72.5774     5988
    72.6430     6248
    72.7087     6465
    72.7743     6126
    72.8400     6248
    72.9057     6108
    72.9713     6026
    73.0370     6492
    73.1026     7407
    73.1683     7264
    73.2339     6385
    73.2996     6398
    73.3652     6978
    73.4309     6432
    73.4965     6231
    73.5622     5951
    73.6278     6136
    73.6935     6190
    73.7591     6186
    73.8248     6197
    73.8904     6370
    73.9561     6931
    74.0217     7211
    74.0874     7394
    74.1530     6757
    74.2187     7164
    74.2843     6645
    74.3500     6359
    74.4156     6246
    74.4813     6231
    74.5469     6345
    74.6126     6087
    74.6782     6068
    74.7439     5867
    74.8095     6069
    74.8752     5955
    74.9408     5990
    75.0065     6085
    75.0722     5881
    75.1378     5936
    75.2035     6030
    75.2691     5775
    75.3348     5899
    75.4004     5844
    75.4661     5935
    75.5317     6045
    75.5974     6049
    75.6630     6194
    75.7287     6235
    75.7943     6097
    75.8600     5971
    75.9256     6072
    75.9913     6060
    76.0569     5844
    76.1226     5996
    76.1882     5986
    76.2539     5887
    76.3195     6038
    76.3852     6290
    76.4508     6535
    76.5165     6506
    76.5821     7178
    76.6478     6860
    76.7134     6240
    76.7791     6789
    76.8447     7778
    76.9104     6663
    76.9760     6157
    77.0417     6212
    77.1073     6366
    77.1730     6155
    77.2386     6143
    77.3043     5850
    77.3699     6294
    77.4356     6640
    77.5013     6882
    77.5669     6206
    77.6326     6231
    77.6982     6337
    77.7639     6136
    77.8295     6082
    77.8952     5949
    77.9608     5832
    78.0265     5819
    78.0921     5951
    78.1578     5923
    78.2234     5845
    78.2891     6095
    78.3547     5854
    78.4204     6020
    78.4860     6009
    78.5517     5897
    78.6173     5952
    78.6830     6217
    78.7486     6749
    78.8143     7037
    78.8799     6375
    78.9456     6619
    79.0112     6708
    79.0769     6901
    79.1425     6422
    79.2082     6295
    79.2738     6033
    79.3395     6197
    79.4051     6072
    79.4708     6224
    79.5364     6732
    79.6021     6798
    79.6677     6270
    79.7334     6483
    79.7990     6946
    79.8647     6695
    79.9304     6253
    79.9960     6127
    80.0617     6205
    80.1273     6040
    80.1930     6019
    80.2586     5995
    80.3243     6110
    80.3899     6181
    80.4556     6760
    80.5212     6929
    80.5869     6862
    80.6525     6768
    80.7182     6697
    80.7838     6506
    80.8495     6324
    80.9151     6245
    80.9808     6379
    81.0464     6595
    81.1121     6201
    81.1777     6135
    81.2434     6741
    81.3090     6481
    81.3747     6209
    81.4403     6368
    81.5060     6473
    81.5716     5995
    81.6373     5941
    81.7029     6002
    81.7686     5967
    81.8342     6052
    81.8999     6018
    81.9655     5975
    82.0312     6578
    82.0968     6230
    82.1625     5906
    82.2281     6125
    82.2938     6289
    82.3595     6366
    82.4251     6243
    82.4908     6026
    82.5564     6061
    82.6221     6159
    82.6877     6161
    82.7534     6070
    82.8190     6045
    82.8847     6728
    82.9503     6435
    83.0160     6001
    83.0816     6058
    83.1473     6306
    83.2129     6044
    83.2786     5845
    83.3442     5840
    83.4099     5822
    83.4755     5834
    83.5412     5844
    83.6068     5731
    83.6725     5753
    83.7381     5746
    83.8038     5748
    83.8694     5933
    83.9351     6000
    84.0007     6013
    84.0664     5835
    84.1320     6039
    84.1977     6097
    84.2633     6041
    84.3290     6348
    84.3946     6222
    84.4603     6087
    84.5260     6243
    84.5916     6235
    84.6573     5773
    84.7229     6007
    84.7886     6012
    84.8542     5706
    84.9199     5989
    84.9855     5941
    85.0512     5757
    85.1168     6009
    85.1825     6012
    85.2481     6049
    85.3138     5845
    85.3794     5891
    85.4451     5837
    85.5107     5935
    85.5764     5944
    85.6420     5979
    85.7077     6157
    85.7733     5905
    85.8390     6027
    85.9046     5919
    85.9703     5951
    86.0359     6068
    86.1016     5974
    86.1672     6068
    86.2329     5850
    86.2985     6079
    86.3642     6091
    86.4298     6159
    86.4955     5962
    86.5611     6064
    86.6268     6690
    86.6925     7004
    86.7581     7174
    86.8238     6841
    86.8894     6631
    86.9551     6701
    87.0207     6727
    87.0864     6353
    87.1520     5924
    87.2177     6058
    87.2833     6057
    87.3490     5931
    87.4146     5948
    87.4803     5879
    87.5459     5814
    87.6116     6006
    87.6772     6138
    87.7429     6321
    87.8085     6343
    87.8742     6423
    87.9398     6194
    88.0055     6059
    88.0711     6120
    88.1368     6016
    88.2024     6133
    88.2681     5896
    88.3337     6003
    88.3994     5820
    88.4650     5930
    88.5307     6366
    88.5963     6490
    88.6620     6617
    88.7276     6117
    88.7933     6112
    88.8589     6248
    88.9246     6354
    88.9902     6173
    89.0559     6052
    89.1216     6481
    89.1872     6646
    89.2529     6298
    89.3185     6119
    89.3842     6329
    89.4498     6615
    89.5155     6182
    89.5811     5993
    89.6468     6196
    89.7124     6360
    89.7781     6378
    89.8437     6068
    89.9094     5871
    89.9750     5966
    90.0407     6167
    90.1063     5844
    90.1720     5855
    90.2376     5819
    90.3033     5867
    90.3689     5858
    90.4346     6000
    90.5002     6050
    90.5659     5602
    90.6315     5824
    90.6972     5914
    90.7628     5904
    90.8285     5887
    90.8941     5960
    90.9598     6240
    91.0254     6037
    91.0911     5895
    91.1567     5915
    91.2224     5951
    91.2880     6302
    91.3537     6085
    91.4193     6314
    91.4850     6229
    91.5507     5830
    91.6163     6257
    91.6820     6458
    91.7476     6366
    91.8133     6173
    91.8789     6271
    91.9446     6491
    92.0102     6360
    92.0759     6886
    92.1415     6220
    92.2072     6052
    92.2728     6052
    92.3385     6152
    92.4041     6259
    92.4698     5867
    92.5354     5904
    92.6011     5897
    92.6667     5949
    92.7324     6019
    92.7980     5908
    92.8637     5789
    92.9293     5925
    92.9950     5749
    93.0606     5734
    93.1263     5768
    93.1919     5676
    93.2576     5808
    93.3232     5961
    93.3889     6071
    93.4545     6502
    93.5202     6559
    93.5858     6152
    93.6515     5827
    93.7171     5876
    93.7828     6054
    93.8484     5978
    93.9141     5825
    93.9798     5867
    94.0454     5852
    94.1111     5921
    94.1767     5862
    94.2424     6194
    94.3080     6614
    94.3737     6261
    94.4393     6077
    94.5050     6224
    94.5706     6421
    94.6363     6226
    94.7019     6168
    94.7676     6279
    94.8332     6067
    94.8989     5925
    94.9645     5932
    95.0302     5948
    95.0958     6098
    95.1615     5956
    95.2271     6144
    95.2928     6275
    95.3584     5974
    95.4241     6039
    95.4897     6326
    95.5554     6371
    95.6210     6235
    95.6867     5866
    95.7523     5898
    95.8180     6038
    95.8836     5945
    95.9493     5891
    96.0149     5755
    96.0806     5884
    96.1463     5668
    96.2119     5810
    96.2776     5752
    96.3432     5819
    96.4089     5879
    96.4745     5999
    96.5402     5829
    96.6058     5930
    96.6715     5961
    96.7371     5953
    96.8028     6168
    96.8684     5969
    96.9341     6042
    96.9997     6125
    97.0654     5958
    97.1310     6261
    97.1967     6224
    97.2623     5784
    97.3280     5816
    97.3936     5817
    97.4593     5981
    97.5249     6006
    97.5906     6111
    97.6562     5887
    97.7219     5732
    97.7875     5742
    97.8532     5991
    97.9188     5879
    97.9845     5706
    98.0501     5946
    98.1158     6066
    98.1814     6191
    98.2471     6157
    98.3128     6061
    98.3784     6115
    98.4441     5921
    98.5097     6069
    98.5754     6191
    98.6410     6073
    98.7067     6192
    98.7723     5823
    98.8380     5759
    98.9036     5840
    98.9693     6074
    99.0349     5580
    99.1006     6069
    99.1662     5732
    99.2319     5806
    99.2975     5669
    99.3632     5545
    99.4288     5841
    99.4945     5702
    99.5601     5668
    99.6258     5735
    99.6914     5866
    99.7571     5786
    99.8227     5947
    99.8884     5736
    99.9540     5842
    99.9934     5888