File: powder_X-ray_diffraction/variable-temperature_experiments/NaNbO2F2/raw_data/290°C.XY
! Initial file:   D:\ZAKARY_OUAIL\MA_THESE\Deuxième_année_de_thèse\DRX\Affinement_DRX\Fullprof\Thermodiff3-nuit_NaNbO2F2\290°C\NaNbO2F2-Lent_290°C.xrdml
! Initial format:  58
! WAVE (A):      1.54060     1.54060     1.00000
! REM : data have been multiplied by     1.0000
! X_data : 2 Theta (deg.)
! Y_data : Intensity (arb. units)
!     X         Y
!--------------------------------------------------------------------------------
    10.0116     7485
    10.0772     7655
    10.1429     7799
    10.2086     7554
    10.2742     7464
    10.3399     7507
    10.4055     7387
    10.4712     7565
    10.5368     7436
    10.6025     7565
    10.6681     7340
    10.7338     7355
    10.7994     7748
    10.8651     7545
    10.9307     8165
    10.9964     8187
    11.0620     8752
    11.1277    12248
    11.1933    35765
    11.2590    72054
    11.3246    12859
    11.3903     8698
    11.4559     7877
    11.5216     7618
    11.5872     7552
    11.6529     7771
    11.7185     7612
    11.7842     7882
    11.8498     7997
    11.9155     7892
    11.9811     7965
    12.0468     8077
    12.1124     8026
    12.1781     7891
    12.2437     7916
    12.3094     7935
    12.3750     7958
    12.4407     7852
    12.5063     8089
    12.5720     8058
    12.6377     7864
    12.7033     7953
    12.7690     8074
    12.8346     7796
    12.9003     7820
    12.9659     7951
    13.0316     7664
    13.0972     7795
    13.1629     7902
    13.2285     7906
    13.2942     7924
    13.3598     7704
    13.4255     7776
    13.4911     7768
    13.5568     7888
    13.6224     7842
    13.6881     7977
    13.7537     7903
    13.8194     7877
    13.8850     7647
    13.9507     7734
    14.0163     7732
    14.0820     7843
    14.1476     7642
    14.2133     7792
    14.2789     7775
    14.3446     7813
    14.4102     7803
    14.4759     8530
    14.5415     9267
    14.6072     8084
    14.6728     7766
    14.7385     7750
    14.8041     7657
    14.8698     7628
    14.9355     7703
    15.0011     7882
    15.0668     7744
    15.1324     7548
    15.1981     7600
    15.2637     7710
    15.3294     7687
    15.3950     7720
    15.4607     7582
    15.5263     7692
    15.5920     7448
    15.6576     7379
    15.7233     7465
    15.7889     7676
    15.8546     7725
    15.9202     7645
    15.9859     7591
    16.0515     7637
    16.1172     7600
    16.1828     7376
    16.2485     7406
    16.3141     7505
    16.3798     7558
    16.4454     7527
    16.5111     7460
    16.5767     7542
    16.6424     7550
    16.7080     7657
    16.7737     7907
    16.8393     7848
    16.9050     7396
    16.9706     7403
    17.0363     7401
    17.1019     7501
    17.1676     7477
    17.2333     7276
    17.2989     7328
    17.3646     7311
    17.4302     7513
    17.4959     7212
    17.5615     7461
    17.6272     7212
    17.6928     7432
    17.7585     7242
    17.8241     7450
    17.8898     7493
    17.9554     7242
    18.0211     7289
    18.0867     7361
    18.1524     7274
    18.2180     7123
    18.2837     7117
    18.3493     7125
    18.4150     7061
    18.4806     7291
    18.5463     7127
    18.6119     7077
    18.6776     7387
    18.7432     7231
    18.8089     7107
    18.8745     7075
    18.9402     7084
    19.0058     7206
    19.0715     7315
    19.1371     7627
    19.2028     7914
    19.2684     7699
    19.3341     7584
    19.3997     7455
    19.4654     7772
    19.5311     8023
    19.5967     8478
    19.6624    10168
    19.7280    25658
    19.7937   100036
    19.8593    49138
    19.9250    11026
    19.9906     9050
    20.0563     8088
    20.1219     7742
    20.1876     7608
    20.2532     7563
    20.3189     7725
    20.3845     7617
    20.4502     7524
    20.5158     7403
    20.5815     7545
    20.6471     7588
    20.7128     7240
    20.7784     7504
    20.8441     7448
    20.9097     7374
    20.9754     7287
    21.0410     7234
    21.1067     7535
    21.1723     7302
    21.2380     7431
    21.3036     7234
    21.3693     7340
    21.4349     7336
    21.5006     7419
    21.5662     7507
    21.6319     7384
    21.6975     7387
    21.7632     7389
    21.8288     7727
    21.8945     7559
    21.9602     7172
    22.0258     7320
    22.0915     7316
    22.1571     7361
    22.2228     7435
    22.2884     7356
    22.3541     7449
    22.4197     7895
    22.4854    10286
    22.5510    33104
    22.6167    23106
    22.6823     8850
    22.7480     8025
    22.8136     7545
    22.8793     7279
    22.9449     7293
    23.0106     7433
    23.0762     7521
    23.1419     7463
    23.2075     7707
    23.2732     7355
    23.3388     7565
    23.4045     7546
    23.4701     7392
    23.5358     7439
    23.6014     7692
    23.6671     7980
    23.7327     9223
    23.7984    26595
    23.8640    21576
    23.9297    10250
    23.9953    10972
    24.0610    35432
    24.1266    28040
    24.1923    10739
    24.2580     7959
    24.3236     7974
    24.3893     7850
    24.4549     7472
    24.5206     7499
    24.5862     7481
    24.6519     7433
    24.7175     7279
    24.7832     7521
    24.8488     7254
    24.9145     7419
    24.9801     7406
    25.0458     7246
    25.1114     7278
    25.1771     7683
    25.2427     7176
    25.3084     7525
    25.3740     7179
    25.4397     7226
    25.5053     7124
    25.5710     7247
    25.6366     7401
    25.7023     7278
    25.7679     7196
    25.8336     7267
    25.8992     7374
    25.9649     7298
    26.0305     7488
    26.0962     7340
    26.1618     7335
    26.2275     7219
    26.2931     7323
    26.3588     7320
    26.4244     7029
    26.4901     6956
    26.5558     7105
    26.6214     7265
    26.6871     7028
    26.7527     7123
    26.8184     7002
    26.8840     7029
    26.9497     7370
    27.0153     7458
    27.0810     7394
    27.1466     7380
    27.2123     7376
    27.2779     7413
    27.3436     7389
    27.4092     7393
    27.4749     7440
    27.5405     7337
    27.6062     7710
    27.6718     8200
    27.7375     9213
    27.8031    11646
    27.8688    34099
    27.9344    88932
    28.0001    52270
    28.0657    14093
    28.1314     9657
    28.1970     8402
    28.2627     7715
    28.3283     7658
    28.3940     7859
    28.4596     7868
    28.5253     8586
    28.5909     8080
    28.6566     7666
    28.7222     7592
    28.7879     7968
    28.8536     8775
    28.9192    21054
    28.9849    29008
    29.0505    19744
    29.1162     9549
    29.1818    14814
    29.2475    14028
    29.3131    12167
    29.3788     9622
    29.4444     7687
    29.5101     7208
    29.5757     7273
    29.6414     7108
    29.7070     7300
    29.7727     7283
    29.8383     7044
    29.9040     7117
    29.9696     7021
    30.0353     6899
    30.1009     6971
    30.1666     6996
    30.2322     7046
    30.2979     7011
    30.3635     7201
    30.4292     6959
    30.4948     7048
    30.5605     7019
    30.6261     6953
    30.6918     7080
    30.7574     7004
    30.8231     6720
    30.8887     6859
    30.9544     6954
    31.0200     7021
    31.0857     6894
    31.1514     6961
    31.2170     6908
    31.2827     6804
    31.3483     6781
    31.4140     7053
    31.4796     6910
    31.5453     6992
    31.6109     6825
    31.6766     6954
    31.7422     7118
    31.8079     6917
    31.8735     6810
    31.9392     6853
    32.0048     6868
    32.0705     6908
    32.1361     6872
    32.2018     6951
    32.2674     6964
    32.3331     7074
    32.3987     6933
    32.4644     6988
    32.5300     6875
    32.5957     6965
    32.6613     7080
    32.7270     7323
    32.7926    12879
    32.8583    12056
    32.9239    11329
    32.9896    19941
    33.0552    13267
    33.1209    10188
    33.1865     7357
    33.2522     7158
    33.3178     7033
    33.3835     7009
    33.4492     7143
    33.5148     8201
    33.5805    15360
    33.6461    11664
    33.7118     9044
    33.7774     7095
    33.8431     7311
    33.9087     7539
    33.9744     7703
    34.0400     8079
    34.1057    14435
    34.1713    10090
    34.2370     8453
    34.3026     7087
    34.3683     6827
    34.4339     6761
    34.4996     6624
    34.5652     6846
    34.6309     6910
    34.6965     7035
    34.7622    11223
    34.8278     9807
    34.8935     8907
    34.9591     7293
    35.0248     7215
    35.0904     7025
    35.1561     6681
    35.2217     6754
    35.2874     6725
    35.3530     6638
    35.4187     6545
    35.4843     6599
    35.5500     6575
    35.6156     6667
    35.6813     6669
    35.7470     6627
    35.8126     6591
    35.8783     6498
    35.9439     6664
    36.0096     6669
    36.0752     6618
    36.1409     6680
    36.2065     6652
    36.2722     6597
    36.3378     6571
    36.4035     6869
    36.4691     9088
    36.5348     8261
    36.6004     8021
    36.6661     6813
    36.7317     6565
    36.7974     6730
    36.8630     6669
    36.9287     6681
    36.9943     6434
    37.0600     6531
    37.1256     6487
    37.1913     6659
    37.2569     6715
    37.3226     6998
    37.3882     7354
    37.4539     7366
    37.5195     8760
    37.5852    10728
    37.6508    10568
    37.7165     8719
    37.7821     7994
    37.8478     6917
    37.9134     6599
    37.9791     6676
    38.0448     6583
    38.1104     6529
    38.1761     6480
    38.2417     6632
    38.3074     6444
    38.3730     6534
    38.4387     6500
    38.5043     6256
    38.5700     6473
    38.6356     6356
    38.7013     6611
    38.7669     6491
    38.8326     6568
    38.8982     6486
    38.9639     6535
    39.0295     6442
    39.0952     7113
    39.1608     9317
    39.2265     7768
    39.2921     7235
    39.3578     6617
    39.4234     6652
    39.4891     6252
    39.5547     6525
    39.6204     6590
    39.6860     6567
    39.7517     6443
    39.8173     6743
    39.8830     6317
    39.9486     6556
    40.0143     6726
    40.0799     6765
    40.1456     8668
    40.2112     9280
    40.2769     8842
    40.3425     7103
    40.4082     6433
    40.4739     6611
    40.5395     6644
    40.6052     6449
    40.6708     6663
    40.7365     6489
    40.8021     6753
    40.8678     6852
    40.9334     9096
    40.9991    12043
    41.0647    10339
    41.1304    10374
    41.1960     7843
    41.2617     6947
    41.3273     6524
    41.3930     6380
    41.4586     6431
    41.5243     6453
    41.5899     6496
    41.6556     6433
    41.7212     6426
    41.7869     6490
    41.8525     6519
    41.9182     6450
    41.9838     6594
    42.0495     6319
    42.1151     6418
    42.1808     6453
    42.2464     6520
    42.3121     6369
    42.3777     6391
    42.4434     6317
    42.5090     6414
    42.5747     6249
    42.6404     6343
    42.7060     6322
    42.7717     6568
    42.8373     6395
    42.9030     6293
    42.9686     6256
    43.0343     6360
    43.0999     6455
    43.1656     6291
    43.2312     6438
    43.2969     6400
    43.3625     6390
    43.4282     6807
    43.4938     7738
    43.5595     7102
    43.6251     7159
    43.6908     6602
    43.7564     6395
    43.8221     6533
    43.8877     6421
    43.9534     6457
    44.0190     6934
    44.0847     6568
    44.1503     6759
    44.2160     6350
    44.2816     6629
    44.3473     6735
    44.4129     7776
    44.4786    13430
    44.5442     9164
    44.6099     9991
    44.6755     7142
    44.7412     6524
    44.8068     6728
    44.8725     6585
    44.9381     6425
    45.0038     6431
    45.0695     6243
    45.1351     6393
    45.2008     6427
    45.2664     6385
    45.3321     6370
    45.3977     6422
    45.4634     6409
    45.5290     6441
    45.5947     6390
    45.6603     6442
    45.7260     6460
    45.7916     6612
    45.8573     6993
    45.9229     7091
    45.9886    12043
    46.0542    18666
    46.1199    11517
    46.1855    11332
    46.2512     7749
    46.3168     6971
    46.3825     7010
    46.4481     6692
    46.5138     6564
    46.5794     6357
    46.6451     6413
    46.7107     6629
    46.7764     6248
    46.8420     6360
    46.9077     6497
    46.9733     6410
    47.0390     6252
    47.1046     6631
    47.1703     6678
    47.2359     7157
    47.3016     9103
    47.3673     7561
    47.4329     8403
    47.4986    10594
    47.5642    10550
    47.6299     9087
    47.6955     8298
    47.7612     7012
    47.8268     7104
    47.8925     7354
    47.9581     8327
    48.0238    17476
    48.0894    14785
    48.1551    13466
    48.2207    10307
    48.2864     7288
    48.3520     6794
    48.4177     6825
    48.4833     6761
    48.5490     6518
    48.6146     6357
    48.6803     7403
    48.7459     7880
    48.8116     7762
    48.8772     7642
    48.9429     7264
    49.0085     7434
    49.0742    10096
    49.1398    16033
    49.2055     9989
    49.2711    13809
    49.3368     8698
    49.4024     8569
    49.4681     7310
    49.5337     7134
    49.5994     6628
    49.6651     6932
    49.7307     7176
    49.7964     8911
    49.8620    19139
    49.9277    11916
    49.9933    13181
    50.0590     9444
    50.1246     7111
    50.1903     6911
    50.2559     6872
    50.3216     7630
    50.3872     7045
    50.4529     7423
    50.5185     9002
    50.5842    10616
    50.6498     8175
    50.7155     9009
    50.7811     6965
    50.8468     6621
    50.9124     6492
    50.9781     6424
    51.0437     6517
    51.1094     6543
    51.1750     6680
    51.2407     6563
    51.3063     6635
    51.3720     6644
    51.4376     6748
    51.5033     7763
    51.5689     8437
    51.6346     9404
    51.7002    15410
    51.7659     8506
    51.8315    10979
    51.8972     7418
    51.9628     6664
    52.0285     6458
    52.0942     6424
    52.1598     6448
    52.2255     6604
    52.2911     6404
    52.3568     6561
    52.4224     6491
    52.4881     6445
    52.5537     6516
    52.6194     6628
    52.6850     8188
    52.7507     6808
    52.8163     7459
    52.8820     6717
    52.9476     6378
    53.0133     6360
    53.0789     6378
    53.1446     6406
    53.2102     6371
    53.2759     6545
    53.3415     6243
    53.4072     6406
    53.4728     6334
    53.5385     6373
    53.6041     6127
    53.6698     6732
    53.7354     6532
    53.8011     6477
    53.8667     6383
    53.9324     6486
    53.9980     6350
    54.0637     6287
    54.1293     6297
    54.1950     6280
    54.2607     6137
    54.3263     6264
    54.3920     6121
    54.4576     6358
    54.5233     6222
    54.5889     6229
    54.6546     6225
    54.7202     6494
    54.7859     6272
    54.8515     6378
    54.9172     6555
    54.9828     6338
    55.0485     6537
    55.1141     6445
    55.1798     6345
    55.2454     6414
    55.3111     6682
    55.3767     6919
    55.4424     7339
    55.5080     9679
    55.5737    10286
    55.6393    13994
    55.7050     8806
    55.7706    10038
    55.8363     7784
    55.9019     7476
    55.9676     6656
    56.0332     6755
    56.0989     6993
    56.1645     7452
    56.2302     9216
    56.2958     7420
    56.3615     8619
    56.4271     7445
    56.4928     9533
    56.5584     9877
    56.6241     7742
    56.6898     8995
    56.7554     7641
    56.8211     6811
    56.8867     6706
    56.9524     6615
    57.0180     6457
    57.0837     6595
    57.1493     6283
    57.2150     6417
    57.2806     6569
    57.3463     6325
    57.4119     6616
    57.4776     6470
    57.5432     6637
    57.6089     7567
    57.6745     9680
    57.7402     7764
    57.8058     9003
    57.8715    10692
    57.9371     8389
    58.0028     8086
    58.0684     7863
    58.1341     6898
    58.1997     6479
    58.2654     6370
    58.3310     6463
    58.3967     7178
    58.4623     7558
    58.5280     7665
    58.5936     7622
    58.6593     9194
    58.7249    11472
    58.7906     9506
    58.8562     9412
    58.9219    10072
    58.9876     9121
    59.0532    11188
    59.1189     9063
    59.1845     8029
    59.2502     7871
    59.3158     6489
    59.3815     6386
    59.4471     6335
    59.5128     6398
    59.5784     6316
    59.6441     6366
    59.7097     6567
    59.7754     6506
    59.8410     6841
    59.9067     7908
    59.9723    12590
    60.0380     8234
    60.1036     8420
    60.1693     8508
    60.2349     6815
    60.3006     6518
    60.3662     6629
    60.4319     7874
    60.4975     8504
    60.5632     6843
    60.6288     7669
    60.6945     7024
    60.7601     6682
    60.8258     6625
    60.8914     6561
    60.9571     6924
    61.0227     8582
    61.0884    11410
    61.1540    13813
    61.2197     9687
    61.2854     9658
    61.3510     8627
    61.4167     6834
    61.4823     6588
    61.5480     6303
    61.6136     6680
    61.6793     7351
    61.7449     6569
    61.8106     6667
    61.8762     6565
    61.9419     6330
    62.0075     6083
    62.0732     6207
    62.1388     6266
    62.2045     6279
    62.2701     6113
    62.3358     6011
    62.4014     5910
    62.4671     6172
    62.5327     6095
    62.5984     5961
    62.6640     6322
    62.7297     6107
    62.7953     6218
    62.8610     6094
    62.9266     6255
    62.9923     6150
    63.0579     6752
    63.1236     7372
    63.1892     6372
    63.2549     6934
    63.3205     6656
    63.3862     6669
    63.4518     7887
    63.5175     7121
    63.5831     6933
    63.6488     7119
    63.7145     6250
    63.7801     6214
    63.8458     6122
    63.9114     6001
    63.9771     6264
    64.0427     6279
    64.1084     6617
    64.1740     7376
    64.2397     6472
    64.3053     6708
    64.3710     6660
    64.4366     6276
    64.5023     6051
    64.5679     6113
    64.6336     6264
    64.6992     6211
    64.7649     6037
    64.8305     6106
    64.8962     6063
    64.9618     6289
    65.0275     6166
    65.0931     6102
    65.1588     6216
    65.2244     6064
    65.2901     6125
    65.3557     6008
    65.4214     6086
    65.4870     6040
    65.5527     5974
    65.6183     5880
    65.6840     6010
    65.7496     5917
    65.8153     6006
    65.8810     5898
    65.9466     6053
    66.0123     5899
    66.0779     5910
    66.1436     6080
    66.2092     6223
    66.2749     5817
    66.3405     6020
    66.4062     6139
    66.4718     6232
    66.5375     5920
    66.6031     6108
    66.6688     6149
    66.7344     6037
    66.8001     5893
    66.8657     5991
    66.9314     5891
    66.9970     5960
    67.0627     5989
    67.1283     5914
    67.1940     5888
    67.2596     5841
    67.3253     6094
    67.3909     6117
    67.4566     5950
    67.5222     6125
    67.5879     6308
    67.6535     5999
    67.7192     6158
    67.7848     6002
    67.8505     6059
    67.9161     6151
    67.9818     6038
    68.0474     6054
    68.1131     6181
    68.1787     6106
    68.2444     6076
    68.3101     6014
    68.3757     6040
    68.4414     6007
    68.5070     6247
    68.5727     5894
    68.6383     6633
    68.7040     6809
    68.7696     7852
    68.8353     6840
    68.9009     6644
    68.9666     6872
    69.0322     6368
    69.0979     6654
    69.1635     7844
    69.2292     9179
    69.2948     7125
    69.3605     7402
    69.4261     8527
    69.4918     7034
    69.5574     6348
    69.6231     6684
    69.6887     6406
    69.7544     6367
    69.8200     7530
    69.8857     6963
    69.9513     6531
    70.0170     6854
    70.0826     6696
    70.1483     6307
    70.2139     6092
    70.2796     6064
    70.3452     6505
    70.4109     6623
    70.4765     6439
    70.5422     6693
    70.6078     6894
    70.6735     6354
    70.7392     6616
    70.8048     6394
    70.8705     6084
    70.9361     6014
    71.0018     6176
    71.0674     5940
    71.1331     5966
    71.1987     5939
    71.2644     6090
    71.3300     6068
    71.3957     6174
    71.4613     6207
    71.5270     6363
    71.5926     6239
    71.6583     6486
    71.7239     6934
    71.7896     8818
    71.8552     7635
    71.9209     6638
    71.9865     7248
    72.0522     6982
    72.1178     6134
    72.1835     5913
    72.2491     6108
    72.3148     6104
    72.3804     6132
    72.4461     6402
    72.5117     6548
    72.5774     6228
    72.6430     6140
    72.7087     6528
    72.7743     6473
    72.8400     6286
    72.9057     6055
    72.9713     6278
    73.0370     6995
    73.1026     7634
    73.1683     6606
    73.2339     6513
    73.2996     6854
    73.3652     6449
    73.4309     6329
    73.4965     6193
    73.5622     6047
    73.6278     6207
    73.6935     6100
    73.7591     6233
    73.8248     6327
    73.8904     6663
    73.9561     7133
    74.0217     7402
    74.0874     6839
    74.1530     6978
    74.2187     7117
    74.2843     6636
    74.3500     6208
    74.4156     6180
    74.4813     6049
    74.5469     6063
    74.6126     6084
    74.6782     6063
    74.7439     6037
    74.8095     6084
    74.8752     5965
    74.9408     6009
    75.0065     6004
    75.0722     6013
    75.1378     5947
    75.2035     5778
    75.2691     5763
    75.3348     6011
    75.4004     5836
    75.4661     5880
    75.5317     5776
    75.5974     6053
    75.6630     6653
    75.7287     6303
    75.7943     6212
    75.8600     6134
    75.9256     6191
    75.9913     5990
    76.0569     5999
    76.1226     6062
    76.1882     5882
    76.2539     5925
    76.3195     6042
    76.3852     6471
    76.4508     6451
    76.5165     7025
    76.5821     7192
    76.6478     6604
    76.7134     6384
    76.7791     6991
    76.8447     7555
    76.9104     6445
    76.9760     6166
    77.0417     6436
    77.1073     6605
    77.1730     6256
    77.2386     6060
    77.3043     6114
    77.3699     6338
    77.4356     6525
    77.5013     6832
    77.5669     6291
    77.6326     6226
    77.6982     6373
    77.7639     6157
    77.8295     5899
    77.8952     5974
    77.9608     5830
    78.0265     5992
    78.0921     5905
    78.1578     5819
    78.2234     5842
    78.2891     5923
    78.3547     5827
    78.4204     5960
    78.4860     6008
    78.5517     6074
    78.6173     6263
    78.6830     6464
    78.7486     7006
    78.8143     6600
    78.8799     6366
    78.9456     6984
    79.0112     6808
    79.0769     6632
    79.1425     6290
    79.2082     6090
    79.2738     6339
    79.3395     6359
    79.4051     6099
    79.4708     6428
    79.5364     7063
    79.6021     6579
    79.6677     6465
    79.7334     6395
    79.7990     6682
    79.8647     6356
    79.9304     6123
    79.9960     6159
    80.0617     6302
    80.1273     6048
    80.1930     5981
    80.2586     5847
    80.3243     6086
    80.3899     6540
    80.4556     6839
    80.5212     6925
    80.5869     6973
    80.6525     6543
    80.7182     6380
    80.7838     6434
    80.8495     6467
    80.9151     6342
    80.9808     6397
    81.0464     6315
    81.1121     6339
    81.1777     6822
    81.2434     6616
    81.3090     6242
    81.3747     6322
    81.4403     6476
    81.5060     6136
    81.5716     6247
    81.6373     6104
    81.7029     6060
    81.7686     6011
    81.8342     6100
    81.8999     6198
    81.9655     6265
    82.0312     6242
    82.0968     5937
    82.1625     6130
    82.2281     6132
    82.2938     6326
    82.3595     6255
    82.4251     6109
    82.4908     5917
    82.5564     6001
    82.6221     6030
    82.6877     5948
    82.7534     5943
    82.8190     6070
    82.8847     6787
    82.9503     6143
    83.0160     5917
    83.0816     5980
    83.1473     6320
    83.2129     5992
    83.2786     5869
    83.3442     5722
    83.4099     5925
    83.4755     5787
    83.5412     5985
    83.6068     5824
    83.6725     5812
    83.7381     5956
    83.8038     5787
    83.8694     5800
    83.9351     6011
    84.0007     5863
    84.0664     6060
    84.1320     6119
    84.1977     6151
    84.2633     6412
    84.3290     5999
    84.3946     6282
    84.4603     6285
    84.5260     6584
    84.5916     6110
    84.6573     6099
    84.7229     5930
    84.7886     5883
    84.8542     5705
    84.9199     5793
    84.9855     5799
    85.0512     5751
    85.1168     5960
    85.1825     5828
    85.2481     5894
    85.3138     5843
    85.3794     5928
    85.4451     5878
    85.5107     5915
    85.5764     5884
    85.6420     6084
    85.7077     5952
    85.7733     5916
    85.8390     5815
    85.9046     5965
    85.9703     5970
    86.0359     5963
    86.1016     5836
    86.1672     5963
    86.2329     6024
    86.2985     6013
    86.3642     6098
    86.4298     5956
    86.4955     6104
    86.5611     6229
    86.6268     6857
    86.6925     6825
    86.7581     6868
    86.8238     6469
    86.8894     6609
    86.9551     6517
    87.0207     6453
    87.0864     6193
    87.1520     5967
    87.2177     6019
    87.2833     6018
    87.3490     5898
    87.4146     5885
    87.4803     5975
    87.5459     6139
    87.6116     6262
    87.6772     6260
    87.7429     6158
    87.8085     6300
    87.8742     6577
    87.9398     6121
    88.0055     5990
    88.0711     6038
    88.1368     6142
    88.2024     5649
    88.2681     5855
    88.3337     5971
    88.3994     5911
    88.4650     6121
    88.5307     6532
    88.5963     6566
    88.6620     6306
    88.7276     6096
    88.7933     6450
    88.8589     6306
    88.9246     6138
    88.9902     6076
    89.0559     6376
    89.1216     6606
    89.1872     6364
    89.2529     6024
    89.3185     6035
    89.3842     6515
    89.4498     6686
    89.5155     6217
    89.5811     6052
    89.6468     6054
    89.7124     6536
    89.7781     6316
    89.8437     6150
    89.9094     5804
    89.9750     6055
    90.0407     6078
    90.1063     5819
    90.1720     5760
    90.2376     5773
    90.3033     5848
    90.3689     5871
    90.4346     5881
    90.5002     5979
    90.5659     5825
    90.6315     5859
    90.6972     5838
    90.7628     5974
    90.8285     5775
    90.8941     6202
    90.9598     6100
    91.0254     6031
    91.0911     6067
    91.1567     6113
    91.2224     6149
    91.2880     6077
    91.3537     6168
    91.4193     6117
    91.4850     6053
    91.5507     6170
    91.6163     6435
    91.6820     6284
    91.7476     6055
    91.8133     6368
    91.8789     6296
    91.9446     6309
    92.0102     6547
    92.0759     6558
    92.1415     6167
    92.2072     5873
    92.2728     6154
    92.3385     5939
    92.4041     6089
    92.4698     5888
    92.5354     5925
    92.6011     5974
    92.6667     6134
    92.7324     5773
    92.7980     5919
    92.8637     5889
    92.9293     5842
    92.9950     5876
    93.0606     5666
    93.1263     5793
    93.1919     5872
    93.2576     5965
    93.3232     6091
    93.3889     6382
    93.4545     6393
    93.5202     6011
    93.5858     5983
    93.6515     6046
    93.7171     6160
    93.7828     5937
    93.8484     5750
    93.9141     5943
    93.9798     5833
    94.0454     5872
    94.1111     6064
    94.1767     6131
    94.2424     6395
    94.3080     6156
    94.3737     5842
    94.4393     6066
    94.5050     6257
    94.5706     6170
    94.6363     6171
    94.7019     6429
    94.7676     6108
    94.8332     5919
    94.8989     5840
    94.9645     5955
    95.0302     5915
    95.0958     5874
    95.1615     5942
    95.2271     6125
    95.2928     6026
    95.3584     5932
    95.4241     6328
    95.4897     6290
    95.5554     6315
    95.6210     5896
    95.6867     5937
    95.7523     5950
    95.8180     5968
    95.8836     6118
    95.9493     5696
    96.0149     5876
    96.0806     5771
    96.1463     5720
    96.2119     5799
    96.2776     5783
    96.3432     5574
    96.4089     5900
    96.4745     5924
    96.5402     5823
    96.6058     5794
    96.6715     5806
    96.7371     6045
    96.8028     6051
    96.8684     5975
    96.9341     6027
    96.9997     5928
    97.0654     6218
    97.1310     6108
    97.1967     5865
    97.2623     5789
    97.3280     5875
    97.3936     6070
    97.4593     6072
    97.5249     5985
    97.5906     5866
    97.6562     5889
    97.7219     5783
    97.7875     5870
    97.8532     5857
    97.9188     5934
    97.9845     5862
    98.0501     5910
    98.1158     5894
    98.1814     6176
    98.2471     6073
    98.3128     6052
    98.3784     6010
    98.4441     5955
    98.5097     6111
    98.5754     6139
    98.6410     5949
    98.7067     5912
    98.7723     5969
    98.8380     5840
    98.9036     5853
    98.9693     5850
    99.0349     5844
    99.1006     5711
    99.1662     5658
    99.2319     5833
    99.2975     5735
    99.3632     5820
    99.4288     5808
    99.4945     5702
    99.5601     5708
    99.6258     5666
    99.6914     5885
    99.7571     5774
    99.8227     5838
    99.8884     5875
    99.9540     5760
    99.9934     5674