File: powder_X-ray_diffraction/variable-temperature_experiments/NaNbO2F2/raw_data/80°C.XY
! Initial file:   D:\ZAKARY_OUAIL\MA_THESE\Deuxième_année_de_thèse\DRX\Affinement_DRX\Fullprof\Thermodiff3-nuit_NaNbO2F2\80°C\NaNbO2F2-Lent_80°C.xrdml
! Initial format:  58
! WAVE (A):      1.54060     1.54060     1.00000
! REM : data have been multiplied by     1.0000
! X_data : 2 Theta (deg.)
! Y_data : Intensity (arb. units)
!     X         Y
!--------------------------------------------------------------------------------
    10.0116     7951
    10.0772     8050
    10.1429     8242
    10.2086     8377
    10.2742     8220
    10.3399     8186
    10.4055     8120
    10.4712     8125
    10.5368     8061
    10.6025     8077
    10.6681     8162
    10.7338     7999
    10.7994     7969
    10.8651     8195
    10.9307     8503
    10.9964     8614
    11.0620     9283
    11.1277    10720
    11.1933    20007
    11.2590    76425
    11.3246    30280
    11.3903     9459
    11.4559     8565
    11.5216     8087
    11.5872     7860
    11.6529     8286
    11.7185     8055
    11.7842     8267
    11.8498     8425
    11.9155     8338
    11.9811     8289
    12.0468     8354
    12.1124     8615
    12.1781     8492
    12.2437     8279
    12.3094     8423
    12.3750     8524
    12.4407     8389
    12.5063     8506
    12.5720     8450
    12.6377     8536
    12.7033     8193
    12.7690     8249
    12.8346     8662
    12.9003     8371
    12.9659     8375
    13.0316     8219
    13.0972     8335
    13.1629     8304
    13.2285     8421
    13.2942     8125
    13.3598     8194
    13.4255     8201
    13.4911     8246
    13.5568     7981
    13.6224     8009
    13.6881     8175
    13.7537     8342
    13.8194     8320
    13.8850     8107
    13.9507     8106
    14.0163     8119
    14.0820     8153
    14.1476     8184
    14.2133     8210
    14.2789     8059
    14.3446     8242
    14.4102     8315
    14.4759     8854
    14.5415     9843
    14.6072     8568
    14.6728     8071
    14.7385     8016
    14.8041     8038
    14.8698     8090
    14.9355     8193
    15.0011     7974
    15.0668     7946
    15.1324     7847
    15.1981     8054
    15.2637     8003
    15.3294     8000
    15.3950     7941
    15.4607     7867
    15.5263     8000
    15.5920     7929
    15.6576     7827
    15.7233     7870
    15.7889     7734
    15.8546     7945
    15.9202     8075
    15.9859     7918
    16.0515     7995
    16.1172     7830
    16.1828     7733
    16.2485     7863
    16.3141     7934
    16.3798     7855
    16.4454     7907
    16.5111     7777
    16.5767     7644
    16.6424     7769
    16.7080     7779
    16.7737     8244
    16.8393     8023
    16.9050     7754
    16.9706     7867
    17.0363     7644
    17.1019     7663
    17.1676     7743
    17.2333     7440
    17.2989     7745
    17.3646     7706
    17.4302     7652
    17.4959     7660
    17.5615     7530
    17.6272     7647
    17.6928     7637
    17.7585     7586
    17.8241     7651
    17.8898     7495
    17.9554     7526
    18.0211     7485
    18.0867     7297
    18.1524     7561
    18.2180     7336
    18.2837     7471
    18.3493     7574
    18.4150     7359
    18.4806     7352
    18.5463     7329
    18.6119     7343
    18.6776     7461
    18.7432     7217
    18.8089     7324
    18.8745     7343
    18.9402     7487
    19.0058     7583
    19.0715     7361
    19.1371     7401
    19.2028     7562
    19.2684     7686
    19.3341     7785
    19.3997     7612
    19.4654     7737
    19.5311     7678
    19.5967     7971
    19.6624     8507
    19.7280     8951
    19.7937    13456
    19.8593    49291
    19.9250    81413
    19.9906    25475
    20.0563     9818
    20.1219     8491
    20.1876     8089
    20.2532     7959
    20.3189     7793
    20.3845     7795
    20.4502     7693
    20.5158     7482
    20.5815     7683
    20.6471     7607
    20.7128     7509
    20.7784     7436
    20.8441     7487
    20.9097     7758
    20.9754     7502
    21.0410     7513
    21.1067     7533
    21.1723     7411
    21.2380     7249
    21.3036     7805
    21.3693     7464
    21.4349     7442
    21.5006     7486
    21.5662     7482
    21.6319     7528
    21.6975     7636
    21.7632     7457
    21.8288     7571
    21.8945     7447
    21.9602     7719
    22.0258     7620
    22.0915     7658
    22.1571     7488
    22.2228     7365
    22.2884     7390
    22.3541     7610
    22.4197     7624
    22.4854     7812
    22.5510     9002
    22.6167    20649
    22.6823    29281
    22.7480    13155
    22.8136     8096
    22.8793     7744
    22.9449     7586
    23.0106     7558
    23.0762     7462
    23.1419     7555
    23.2075     7662
    23.2732     7787
    23.3388     7751
    23.4045     7754
    23.4701     7599
    23.5358     7737
    23.6014     7768
    23.6671     7988
    23.7327     9028
    23.7984    23647
    23.8640    23435
    23.9297    11403
    23.9953     8643
    24.0610     9139
    24.1266    20983
    24.1923    29970
    24.2580    14951
    24.3236     8298
    24.3893     8016
    24.4549     7832
    24.5206     7732
    24.5862     7407
    24.6519     7349
    24.7175     7391
    24.7832     7366
    24.8488     7604
    24.9145     7544
    24.9801     7473
    25.0458     7430
    25.1114     7384
    25.1771     7288
    25.2427     7614
    25.3084     7644
    25.3740     7586
    25.4397     7345
    25.5053     7309
    25.5710     7281
    25.6366     7463
    25.7023     7319
    25.7679     7314
    25.8336     7345
    25.8992     7462
    25.9649     7491
    26.0305     7322
    26.0962     7374
    26.1618     7462
    26.2275     7322
    26.2931     7368
    26.3588     7202
    26.4244     7265
    26.4901     7335
    26.5558     7152
    26.6214     7221
    26.6871     7259
    26.7527     7206
    26.8184     7014
    26.8840     7086
    26.9497     7360
    27.0153     7376
    27.0810     7461
    27.1466     7516
    27.2123     7521
    27.2779     7387
    27.3436     7631
    27.4092     7361
    27.4749     7343
    27.5405     7492
    27.6062     7471
    27.6718     7410
    27.7375     7724
    27.8031     8413
    27.8688     9285
    27.9344    11481
    28.0001    26253
    28.0657    88062
    28.1314    57594
    28.1970    18361
    28.2627    10124
    28.3283     8443
    28.3940     7999
    28.4596     7883
    28.5253     9049
    28.5909     8594
    28.6566     7801
    28.7222     7661
    28.7879     7854
    28.8536     7919
    28.9192     8741
    28.9849    18368
    29.0505    33151
    29.1162    22570
    29.1818     9164
    29.2475     9388
    29.3131    13754
    29.3788    16399
    29.4444    11456
    29.5101     8283
    29.5757     7539
    29.6414     7389
    29.7070     7250
    29.7727     7207
    29.8383     7100
    29.9040     7210
    29.9696     7092
    30.0353     6982
    30.1009     7106
    30.1666     6906
    30.2322     7315
    30.2979     7225
    30.3635     6964
    30.4292     6946
    30.4948     7043
    30.5605     6906
    30.6261     6879
    30.6918     7073
    30.7574     7051
    30.8231     6881
    30.8887     7071
    30.9544     7023
    31.0200     6897
    31.0857     6848
    31.1514     6901
    31.2170     6946
    31.2827     6943
    31.3483     6912
    31.4140     6819
    31.4796     6816
    31.5453     7005
    31.6109     6911
    31.6766     6907
    31.7422     6878
    31.8079     7069
    31.8735     6979
    31.9392     6811
    32.0048     6852
    32.0705     6699
    32.1361     7053
    32.2018     6982
    32.2674     6940
    32.3331     6824
    32.3987     6832
    32.4644     6945
    32.5300     6796
    32.5957     6847
    32.6613     6622
    32.7270     7019
    32.7926     7096
    32.8583     7261
    32.9239     7699
    32.9896    11883
    33.0552    26730
    33.1209    18788
    33.1865     9550
    33.2522     7554
    33.3178     7232
    33.3835     6980
    33.4492     6888
    33.5148     7019
    33.5805     6902
    33.6461     7047
    33.7118     7598
    33.7774    11695
    33.8431    12811
    33.9087    11129
    33.9744     8440
    34.0400     7693
    34.1057     7303
    34.1713     7284
    34.2370    10309
    34.3026    11682
    34.3683    10250
    34.4339     7379
    34.4996     6922
    34.5652     6762
    34.6309     6672
    34.6965     6792
    34.7622     6856
    34.8278     6720
    34.8935     7045
    34.9591     8065
    35.0248    11383
    35.0904     9645
    35.1561     7882
    35.2217     7560
    35.2874     7017
    35.3530     6793
    35.4187     6651
    35.4843     6573
    35.5500     6567
    35.6156     6474
    35.6813     6503
    35.7470     6585
    35.8126     6684
    35.8783     6598
    35.9439     6611
    36.0096     6552
    36.0752     6552
    36.1409     6535
    36.2065     6721
    36.2722     6638
    36.3378     6772
    36.4035     6860
    36.4691     8700
    36.5348     8485
    36.6004     8134
    36.6661     6851
    36.7317     6715
    36.7974     6640
    36.8630     6561
    36.9287     6741
    36.9943     6643
    37.0600     6695
    37.1256     6626
    37.1913     6633
    37.2569     6402
    37.3226     6629
    37.3882     6514
    37.4539     6304
    37.5195     6790
    37.5852     6929
    37.6508     7690
    37.7165     7519
    37.7821     9502
    37.8478    12666
    37.9134    11535
    37.9791     9100
    38.0448     7149
    38.1104     6863
    38.1761     6815
    38.2417     6557
    38.3074     6478
    38.3730     6690
    38.4387     6520
    38.5043     6592
    38.5700     6629
    38.6356     6450
    38.7013     6553
    38.7669     6612
    38.8326     6402
    38.8982     6622
    38.9639     6321
    39.0295     6570
    39.0952     6337
    39.1608     6474
    39.2265     6881
    39.2921     9491
    39.3578     7670
    39.4234     7808
    39.4891     6682
    39.5547     6477
    39.6204     6498
    39.6860     6372
    39.7517     6602
    39.8173     6426
    39.8830     6277
    39.9486     6564
    40.0143     6380
    40.0799     6590
    40.1456     6474
    40.2112     7068
    40.2769     6927
    40.3425     7059
    40.4082     8214
    40.4739     8783
    40.5395     7811
    40.6052     7027
    40.6708     6528
    40.7365     6345
    40.8021     6337
    40.8678     6459
    40.9334     6349
    40.9991     6478
    41.0647     6665
    41.1304     7889
    41.1960     7519
    41.2617     9595
    41.3273    12233
    41.3930    10360
    41.4586     8954
    41.5243     7083
    41.5899     6641
    41.6556     6346
    41.7212     6368
    41.7869     6494
    41.8525     6433
    41.9182     6343
    41.9838     6401
    42.0495     6562
    42.1151     6363
    42.1808     6473
    42.2464     6445
    42.3121     6479
    42.3777     6474
    42.4434     6428
    42.5090     6291
    42.5747     6215
    42.6404     6391
    42.7060     6410
    42.7717     6572
    42.8373     6412
    42.9030     6278
    42.9686     6281
    43.0343     6346
    43.0999     6334
    43.1656     6301
    43.2312     6426
    43.2969     6267
    43.3625     6290
    43.4282     6300
    43.4938     6487
    43.5595     6433
    43.6251     6504
    43.6908     7971
    43.7564     7282
    43.8221     7116
    43.8877     6690
    43.9534     6372
    44.0190     6314
    44.0847     6340
    44.1503     6471
    44.2160     6603
    44.2816     6390
    44.3473     6378
    44.4129     6526
    44.4786     6606
    44.5442     6615
    44.6099     7016
    44.6755     6974
    44.7412     8605
    44.8068    13462
    44.8725     9401
    44.9381     9745
    45.0038     7124
    45.0695     6508
    45.1351     6342
    45.2008     6495
    45.2664     6304
    45.3321     6427
    45.3977     6224
    45.4634     6368
    45.5290     6466
    45.5947     6331
    45.6603     6253
    45.7260     6569
    45.7916     6266
    45.8573     6305
    45.9229     6453
    45.9886     6543
    46.0542     6912
    46.1199     7038
    46.1855     8185
    46.2512    18266
    46.3168    14491
    46.3825    13800
    46.4481     9466
    46.5138     6943
    46.5794     6562
    46.6451     6553
    46.7107     6483
    46.7764     6359
    46.8420     6518
    46.9077     6291
    46.9733     6451
    47.0390     6318
    47.1046     6309
    47.1703     6450
    47.2359     6341
    47.3016     6462
    47.3673     6462
    47.4329     6602
    47.4986     6614
    47.5642     7091
    47.6299    11668
    47.6955    11545
    47.7612    10157
    47.8268     8645
    47.8925     7124
    47.9581     6784
    48.0238     6770
    48.0894     6943
    48.1551     6962
    48.2207     7659
    48.2864    10601
    48.3520    17563
    48.4177    12852
    48.4833    12854
    48.5490     8819
    48.6146     7163
    48.6803     6903
    48.7459     7434
    48.8116     7848
    48.8772     7809
    48.9429     7390
    49.0085     7124
    49.0742     6850
    49.1398     6695
    49.2055     6971
    49.2711     7477
    49.3368     9504
    49.4024    16115
    49.4681    12600
    49.5337    13859
    49.5994     9546
    49.6651     8196
    49.7307     6954
    49.7964     6774
    49.8620     7061
    49.9277     7447
    49.9933    10657
    50.0590    19262
    50.1246    11475
    50.1903    13445
    50.2559     8408
    50.3216     6981
    50.3872     6676
    50.4529     6643
    50.5185     6631
    50.5842     6616
    50.6498     7125
    50.7155     9045
    50.7811     7804
    50.8468     8119
    50.9124     8499
    50.9781     8811
    51.0437     7645
    51.1094     7920
    51.1750     6917
    51.2407     6542
    51.3063     6535
    51.3720     6437
    51.4376     6589
    51.5033     6496
    51.5689     6497
    51.6346     6580
    51.7002     7301
    51.7659    13012
    51.8315     9618
    51.8972    10892
    51.9628     9775
    52.0285     8046
    52.0942     7957
    52.1598     6831
    52.2255     6987
    52.2911     6363
    52.3568     6454
    52.4224     6558
    52.4881     6233
    52.5537     6330
    52.6194     6752
    52.6850     8179
    52.7507     6729
    52.8163     7045
    52.8820     6598
    52.9476     6415
    53.0133     6403
    53.0789     6201
    53.1446     6328
    53.2102     6142
    53.2759     6227
    53.3415     6206
    53.4072     6393
    53.4728     6453
    53.5385     6319
    53.6041     6252
    53.6698     6300
    53.7354     6162
    53.8011     6470
    53.8667     6160
    53.9324     6267
    53.9980     6473
    54.0637     6553
    54.1293     6429
    54.1950     6275
    54.2607     6270
    54.3263     6154
    54.3920     6242
    54.4576     6221
    54.5233     6163
    54.5889     6198
    54.6546     6141
    54.7202     6126
    54.7859     6218
    54.8515     6353
    54.9172     6110
    54.9828     6345
    55.0485     6154
    55.1141     6314
    55.1798     6193
    55.2454     6309
    55.3111     6379
    55.3767     6227
    55.4424     6322
    55.5080     7195
    55.5737     7915
    55.6393     6842
    55.7050     7371
    55.7706     6749
    55.8363     6791
    55.9019     7370
    55.9676     9286
    56.0332    12547
    56.0989     9324
    56.1645     9423
    56.2302     8442
    56.2958     7273
    56.3615     7198
    56.4271     6769
    56.4928     7147
    56.5584     9070
    56.6241     8091
    56.6898     7612
    56.7554     8247
    56.8211     7578
    56.8867    10077
    56.9524     8489
    57.0180     8013
    57.0837     8165
    57.1493     7019
    57.2150     7019
    57.2806     6714
    57.3463     6830
    57.4119     6531
    57.4776     6416
    57.5432     6168
    57.6089     6344
    57.6745     6300
    57.7402     6263
    57.8058     6503
    57.8715     6988
    57.9371     7876
    58.0028    10008
    58.0684    11250
    58.1341     9426
    58.1997     8921
    58.2654     8155
    58.3310     6799
    58.3967     6501
    58.4623     6380
    58.5280     6230
    58.5936     6136
    58.6593     6410
    58.7249     6444
    58.7906     6957
    58.8562     7346
    58.9219     7546
    58.9876     8428
    59.0532     9540
    59.1189     8045
    59.1845    10863
    59.2502    11278
    59.3158     8189
    59.3815     9244
    59.4471     8663
    59.5128     9959
    59.5784     8347
    59.6441     7734
    59.7097     7774
    59.7754     6615
    59.8410     6609
    59.9067     6437
    59.9723     6485
    60.0380     7455
    60.1036    10980
    60.1693    10704
    60.2349     8034
    60.3006     9529
    60.3662     7395
    60.4319     6585
    60.4975     6402
    60.5632     6260
    60.6288     6340
    60.6945     6404
    60.7601     7260
    60.8258     9105
    60.8914     7305
    60.9571     7594
    61.0227     7382
    61.0884     6528
    61.1540     6516
    61.2197     6492
    61.2854     6668
    61.3510     6745
    61.4167     7610
    61.4823    11153
    61.5480    12289
    61.6136    10273
    61.6793    11264
    61.7449     9810
    61.8106     7483
    61.8762     7187
    61.9419     6511
    62.0075     6139
    62.0732     6046
    62.1388     6102
    62.2045     5982
    62.2701     6118
    62.3358     6027
    62.4014     6204
    62.4671     6366
    62.5327     6024
    62.5984     6178
    62.6640     6000
    62.7297     6017
    62.7953     6138
    62.8610     6136
    62.9266     6123
    62.9923     6156
    63.0579     6077
    63.1236     5965
    63.1892     5972
    63.2549     6205
    63.3205     6109
    63.3862     6164
    63.4518     6405
    63.5175     6724
    63.5831     8286
    63.6488     8706
    63.7145     6851
    63.7801     7707
    63.8458     6768
    63.9114     6293
    63.9771     6345
    64.0427     6120
    64.1084     6089
    64.1740     6096
    64.2397     5853
    64.3053     5916
    64.3710     6064
    64.4366     5925
    64.5023     6301
    64.5679     6217
    64.6336     6665
    64.6992     7037
    64.7649     6586
    64.8305     6555
    64.8962     6598
    64.9618     6227
    65.0275     6073
    65.0931     6060
    65.1588     5996
    65.2244     6152
    65.2901     5936
    65.3557     6026
    65.4214     6075
    65.4870     6093
    65.5527     6040
    65.6183     6033
    65.6840     6166
    65.7496     6073
    65.8153     6106
    65.8810     5980
    65.9466     6059
    66.0123     5959
    66.0779     5818
    66.1436     5919
    66.2092     5805
    66.2749     5956
    66.3405     5997
    66.4062     5925
    66.4718     5992
    66.5375     6053
    66.6031     6258
    66.6688     6151
    66.7344     6099
    66.8001     6067
    66.8657     5880
    66.9314     6050
    66.9970     5943
    67.0627     5757
    67.1283     5844
    67.1940     6027
    67.2596     6126
    67.3253     5968
    67.3909     6024
    67.4566     6020
    67.5222     5975
    67.5879     6068
    67.6535     5722
    67.7192     5906
    67.7848     5928
    67.8505     5929
    67.9161     6167
    67.9818     5874
    68.0474     5949
    68.1131     5704
    68.1787     6047
    68.2444     5973
    68.3101     5889
    68.3757     6021
    68.4414     5991
    68.5070     5804
    68.5727     6039
    68.6383     5962
    68.7040     5837
    68.7696     5967
    68.8353     5865
    68.9009     6076
    68.9666     5960
    69.0322     6127
    69.0979     6351
    69.1635     6287
    69.2292     6647
    69.2948     7749
    69.3605     9285
    69.4261     7293
    69.4918     7109
    69.5574     7767
    69.6231     7325
    69.6887     6852
    69.7544     6982
    69.8200     8114
    69.8857     8453
    69.9513     7238
    70.0170     7135
    70.0826     7315
    70.1483     6380
    70.2139     6142
    70.2796     5954
    70.3452     6076
    70.4109     6011
    70.4765     5959
    70.5422     5958
    70.6078     6005
    70.6735     6285
    70.7392     5986
    70.8048     6362
    70.8705     6642
    70.9361     6638
    71.0018     6311
    71.0674     6262
    71.1331     6590
    71.1987     6364
    71.2644     6065
    71.3300     6079
    71.3957     5984
    71.4613     6001
    71.5270     5960
    71.5926     5932
    71.6583     5960
    71.7239     6133
    71.7896     6031
    71.8552     5896
    71.9209     6297
    71.9865     6530
    72.0522     6454
    72.1178     6710
    72.1835     7874
    72.2491     8597
    72.3148     7373
    72.3804     6890
    72.4461     7190
    72.5117     6468
    72.5774     6087
    72.6430     5888
    72.7087     5801
    72.7743     6065
    72.8400     6637
    72.9057     6169
    72.9713     6058
    73.0370     6116
    73.1026     6179
    73.1683     6073
    73.2339     5938
    73.2996     6173
    73.3652     6206
    73.4309     6010
    73.4965     6299
    73.5622     6192
    73.6278     6599
    73.6935     7312
    73.7591     6886
    73.8248     6446
    73.8904     6587
    73.9561     6432
    74.0217     6384
    74.0874     6117
    74.1530     6059
    74.2187     6268
    74.2843     6194
    74.3500     6016
    74.4156     6263
    74.4813     6770
    74.5469     6719
    74.6126     7932
    74.6782     7379
    74.7439     6480
    74.8095     6551
    74.8752     6900
    74.9408     6213
    75.0065     5899
    75.0722     6037
    75.1378     5980
    75.2035     6009
    75.2691     5997
    75.3348     5864
    75.4004     5979
    75.4661     5823
    75.5317     5568
    75.5974     5841
    75.6630     5889
    75.7287     5955
    75.7943     6070
    75.8600     5836
    75.9256     6111
    75.9913     6364
    76.0569     6033
    76.1226     5867
    76.1882     5966
    76.2539     6135
    76.3195     5894
    76.3852     5987
    76.4508     5923
    76.5165     6163
    76.5821     6082
    76.6478     6011
    76.7134     6008
    76.7791     6130
    76.8447     6165
    76.9104     6101
    76.9760     6401
    77.0417     7203
    77.1073     7812
    77.1730     7446
    77.2386     6801
    77.3043     7049
    77.3699     6820
    77.4356     6255
    77.5013     6364
    77.5669     7023
    77.6326     6459
    77.6982     6000
    77.7639     6641
    77.8295     6878
    77.8952     5909
    77.9608     5749
    78.0265     5904
    78.0921     6125
    78.1578     5942
    78.2234     5843
    78.2891     5772
    78.3547     5748
    78.4204     5819
    78.4860     5970
    78.5517     5954
    78.6173     6078
    78.6830     5763
    78.7486     5724
    78.8143     5905
    78.8799     5982
    78.9456     6002
    79.0112     6049
    79.0769     6099
    79.1425     6019
    79.2082     6114
    79.2738     6478
    79.3395     6371
    79.4051     6634
    79.4708     6981
    79.5364     6457
    79.6021     6530
    79.6677     6687
    79.7334     6530
    79.7990     6098
    79.8647     6637
    79.9304     7276
    79.9960     7002
    80.0617     6324
    80.1273     6480
    80.1930     6673
    80.2586     6184
    80.3243     5978
    80.3899     6245
    80.4556     6068
    80.5212     5890
    80.5869     6185
    80.6525     6184
    80.7182     6155
    80.7838     6045
    80.8495     5946
    80.9151     6297
    80.9808     6787
    81.0464     6605
    81.1121     6307
    81.1777     6731
    81.2434     6905
    81.3090     6776
    81.3747     6520
    81.4403     6355
    81.5060     6249
    81.5716     6285
    81.6373     6414
    81.7029     6832
    81.7686     6861
    81.8342     6523
    81.8999     6187
    81.9655     6365
    82.0312     6207
    82.0968     6016
    82.1625     6095
    82.2281     5905
    82.2938     6050
    82.3595     6064
    82.4251     6033
    82.4908     5986
    82.5564     6080
    82.6221     5938
    82.6877     6121
    82.7534     6383
    82.8190     6285
    82.8847     6118
    82.9503     6434
    83.0160     6411
    83.0816     6457
    83.1473     6590
    83.2129     6580
    83.2786     6231
    83.3442     6253
    83.4099     6209
    83.4755     6189
    83.5412     6024
    83.6068     5764
    83.6725     5955
    83.7381     5939
    83.8038     5893
    83.8694     5853
    83.9351     5934
    84.0007     5759
    84.0664     5836
    84.1320     5762
    84.1977     5768
    84.2633     5869
    84.3290     5845
    84.3946     5820
    84.4603     5862
    84.5260     5869
    84.5916     6010
    84.6573     5865
    84.7229     5762
    84.7886     5931
    84.8542     6021
    84.9199     5817
    84.9855     6299
    85.0512     6413
    85.1168     6090
    85.1825     5888
    85.2481     6114
    85.3138     6289
    85.3794     5997
    85.4451     5826
    85.5107     5964
    85.5764     5915
    85.6420     5687
    85.7077     5746
    85.7733     5819
    85.8390     5891
    85.9046     6068
    85.9703     6018
    86.0359     5829
    86.1016     5782
    86.1672     5829
    86.2329     5914
    86.2985     5898
    86.3642     5787
    86.4298     5832
    86.4955     5989
    86.5611     5758
    86.6268     5729
    86.6925     5819
    86.7581     6010
    86.8238     6303
    86.8894     6466
    86.9551     6479
    87.0207     6156
    87.0864     6190
    87.1520     6560
    87.2177     6929
    87.2833     6299
    87.3490     6287
    87.4146     6441
    87.4803     6792
    87.5459     6324
    87.6116     6167
    87.6772     6063
    87.7429     6154
    87.8085     6179
    87.8742     6054
    87.9398     6003
    88.0055     5686
    88.0711     6059
    88.1368     6224
    88.2024     5844
    88.2681     5808
    88.3337     6245
    88.3994     6253
    88.4650     6391
    88.5307     6591
    88.5963     6112
    88.6620     6143
    88.7276     6035
    88.7933     6486
    88.8589     6429
    88.9246     6108
    88.9902     5793
    89.0559     6098
    89.1216     6392
    89.1872     6668
    89.2529     6474
    89.3185     6205
    89.3842     6038
    89.4498     6137
    89.5155     6548
    89.5811     6504
    89.6468     6283
    89.7124     6237
    89.7781     6303
    89.8437     6741
    89.9094     7068
    89.9750     6639
    90.0407     6299
    90.1063     6157
    90.1720     6381
    90.2376     6411
    90.3033     6146
    90.3689     5864
    90.4346     5725
    90.5002     5887
    90.5659     5835
    90.6315     5721
    90.6972     5701
    90.7628     5656
    90.8285     5651
    90.8941     5722
    90.9598     5951
    91.0254     5881
    91.0911     5717
    91.1567     5601
    91.2224     5831
    91.2880     5719
    91.3537     5805
    91.4193     5729
    91.4850     5837
    91.5507     5894
    91.6163     6023
    91.6820     6008
    91.7476     6027
    91.8133     6057
    91.8789     6019
    91.9446     6013
    92.0102     6022
    92.0759     6126
    92.1415     6179
    92.2072     6256
    92.2728     6041
    92.3385     6165
    92.4041     6833
    92.4698     7004
    92.5354     6766
    92.6011     6299
    92.6667     6308
    92.7324     6299
    92.7980     6263
    92.8637     6244
    92.9293     5968
    92.9950     5768
    93.0606     5941
    93.1263     5707
    93.1919     5758
    93.2576     5971
    93.3232     5754
    93.3889     5930
    93.4545     5972
    93.5202     5816
    93.5858     5778
    93.6515     5879
    93.7171     5583
    93.7828     5736
    93.8484     5829
    93.9141     5719
    93.9798     5905
    94.0454     5821
    94.1111     5826
    94.1767     5869
    94.2424     6163
    94.3080     6584
    94.3737     6051
    94.4393     6000
    94.5050     5983
    94.5706     5967
    94.6363     6088
    94.7019     5888
    94.7676     5917
    94.8332     5805
    94.8989     5791
    94.9645     5889
    95.0302     5965
    95.0958     6058
    95.1615     6227
    95.2271     6198
    95.2928     6229
    95.3584     6357
    95.4241     6222
    95.4897     6291
    95.5554     6494
    95.6210     6310
    95.6867     6144
    95.7523     6586
    95.8180     6132
    95.8836     6017
    95.9493     5974
    96.0149     6044
    96.0806     6155
    96.1463     6335
    96.2119     6240
    96.2776     6063
    96.3432     5901
    96.4089     5949
    96.4745     5824
    96.5402     5836
    96.6058     6033
    96.6715     5816
    96.7371     5752
    96.8028     5792
    96.8684     5641
    96.9341     5713
    96.9997     5582
    97.0654     5739
    97.1310     5699
    97.1967     5672
    97.2623     5772
    97.3280     5786
    97.3936     5781
    97.4593     5678
    97.5249     6081
    97.5906     6296
    97.6562     6648
    97.7219     6152
    97.7875     5906
    97.8532     5840
    97.9188     5981
    97.9845     6177
    98.0501     6021
    98.1158     5994
    98.1814     5801
    98.2471     5832
    98.3128     5732
    98.3784     5849
    98.4441     5817
    98.5097     5924
    98.5754     5769
    98.6410     5851
    98.7067     5910
    98.7723     6020
    98.8380     6218
    98.9036     6064
    98.9693     5892
    99.0349     5909
    99.1006     5906
    99.1662     6224
    99.2319     5910
    99.2975     6040
    99.3632     5963
    99.4288     5953
    99.4945     5990
    99.5601     5710
    99.6258     5727
    99.6914     5640
    99.7571     5522
    99.8227     5499
    99.8884     5819
    99.9540     5750
    99.9934     5796