File: powder_X-ray_diffraction/room_temperature_experiments/NaTaO2F2/raw_data/NaTaO2F2_rt.XY
! Initial file:   .\NaTaO2F2_rt.xrdml
! Initial format:  58
! WAVE (A):      1.54060     1.54060     1.00000
! REM : data have been multiplied by     1.0000
! X_data : 2 Theta (deg.)
! Y_data : Intensity (arb. units)
!     X         Y
!--------------------------------------------------------------------------------
     5.0299    24080
     5.1218    24191
     5.2137    23966
     5.3056    23619
     5.3975    23548
     5.4895    23226
     5.5814    23432
     5.6733    23737
     5.7652    23520
     5.8571    23386
     5.9490    23360
     6.0409    23151
     6.1328    23240
     6.2248    23142
     6.3167    23432
     6.4086    23293
     6.5005    23131
     6.5924    23198
     6.6843    23254
     6.7762    23331
     6.8681    23437
     6.9600    23307
     7.0520    23401
     7.1439    23395
     7.2358    23243
     7.3277    23244
     7.4196    23216
     7.5115    23106
     7.6034    23167
     7.6953    23097
     7.7873    22908
     7.8792    23161
     7.9711    22828
     8.0630    23056
     8.1549    23000
     8.2468    22925
     8.3387    22430
     8.4306    22717
     8.5226    22612
     8.6145    22307
     8.7064    22248
     8.7983    22188
     8.8902    22218
     8.9821    21834
     9.0740    21736
     9.1659    21804
     9.2578    21525
     9.3498    21298
     9.4417    21418
     9.5336    20978
     9.6255    20808
     9.7174    20689
     9.8093    20501
     9.9012    20476
     9.9931    19984
    10.0851    19931
    10.1770    20072
    10.2689    19617
    10.3608    19479
    10.4527    19306
    10.5446    18897
    10.6365    18864
    10.7284    18502
    10.8204    18700
    10.9123    19045
    11.0042    20237
    11.0961    26251
    11.1880    76426
    11.2799   168664
    11.3718    26890
    11.4637    19656
    11.5556    17731
    11.6476    17351
    11.7395    17304
    11.8314    16967
    11.9233    16702
    12.0152    16550
    12.1071    16496
    12.1990    15978
    12.2909    16259
    12.3829    15798
    12.4748    15817
    12.5667    15487
    12.6586    15471
    12.7505    15242
    12.8424    15049
    12.9343    15144
    13.0262    14862
    13.1181    14691
    13.2101    14560
    13.3020    14481
    13.3939    14576
    13.4858    14437
    13.5777    14181
    13.6696    13993
    13.7615    13962
    13.8534    14072
    13.9454    13924
    14.0373    13795
    14.1292    13721
    14.2211    13482
    14.3130    13588
    14.4049    13552
    14.4968    13290
    14.5887    13269
    14.6807    13434
    14.7726    13138
    14.8645    13250
    14.9564    12940
    15.0483    12755
    15.1402    12642
    15.2321    12987
    15.3240    12618
    15.4159    12638
    15.5079    12806
    15.5998    12735
    15.6917    12446
    15.7836    12381
    15.8755    12422
    15.9674    12337
    16.0593    12328
    16.1512    12181
    16.2432    12290
    16.3351    11997
    16.4270    12171
    16.5189    12259
    16.6108    12560
    16.7027    12192
    16.7946    12106
    16.8865    11988
    16.9785    11686
    17.0704    11783
    17.1623    11756
    17.2542    11528
    17.3461    11731
    17.4380    12223
    17.5299    11918
    17.6218    11429
    17.7137    11518
    17.8057    11375
    17.8976    11780
    17.9895    11996
    18.0814    11131
    18.1733    11283
    18.2652    11044
    18.3571    11117
    18.4490    11101
    18.5410    11000
    18.6329    11203
    18.7248    11236
    18.8167    11298
    18.9086    11176
    19.0005    10714
    19.0924    10932
    19.1843    11393
    19.2763    11941
    19.3682    11890
    19.4601    12410
    19.5520    13372
    19.6439    15203
    19.7358    22388
    19.8277   125709
    19.9196   298831
    20.0115    38648
    20.1035    16381
    20.1954    12537
    20.2873    11965
    20.3792    11991
    20.4711    11675
    20.5630    11000
    20.6549    10715
    20.7468    10764
    20.8388    10543
    20.9307    10380
    21.0226    10512
    21.1145    10416
    21.2064    10418
    21.2983    10485
    21.3902    10576
    21.4821    10231
    21.5741    10160
    21.6660    10277
    21.7579     9892
    21.8498    10414
    21.9417    10473
    22.0336    10995
    22.1255    10733
    22.2174    10787
    22.3093    10372
    22.4013    11312
    22.4932    27867
    22.5851    39835
    22.6770    11950
    22.7689    10288
    22.8608    10071
    22.9527    10045
    23.0446     9605
    23.1366     9724
    23.2285     9368
    23.3204     9802
    23.4123     9568
    23.5042     9683
    23.5961     9740
    23.6880     9897
    23.7799    10224
    23.8719    10095
    23.9638    10325
    24.0557    11210
    24.1476    12593
    24.2395    16365
    24.3314    87276
    24.4233    92259
    24.5152    33626
    24.6071   134053
    24.6991    53497
    24.7910    12734
    24.8829    10381
    24.9748     9703
    25.0667     9476
    25.1586     9739
    25.2505    10017
    25.3424     9397
    25.4344     9387
    25.5263     9433
    25.6182     9306
    25.7101     9113
    25.8020     9172
    25.8939     8840
    25.9858     8948
    26.0777     8882
    26.1697     9952
    26.2616    10120
    26.3535     9190
    26.4454     8922
    26.5373     8906
    26.6292     8885
    26.7211     8651
    26.8130     8828
    26.9049     8715
    26.9969     9009
    27.0888     9232
    27.1807     9303
    27.2726     9504
    27.3645     9773
    27.4564     9554
    27.5483     9921
    27.6402    11159
    27.7322    13498
    27.8241    24214
    27.9160   148798
    28.0079   168360
    28.0998    31382
    28.1917    13220
    28.2836    10099
    28.3755     9463
    28.4675     9556
    28.5594    10323
    28.6513     9624
    28.7432     8993
    28.8351     8921
    28.9270     8888
    29.0189     8938
    29.1108     9372
    29.2027     9959
    29.2947    11287
    29.3866    24030
    29.4785    92799
    29.5704    44346
    29.6623    50244
    29.7542    28161
    29.8461    10057
    29.9380     8981
    30.0300     8427
    30.1219     8639
    30.2138     8387
    30.3057     8280
    30.3976     8436
    30.4895     8287
    30.5814     8071
    30.6733     8284
    30.7652     7934
    30.8572     8033
    30.9491     8031
    31.0410     8075
    31.1329     7937
    31.2248     7782
    31.3167     7733
    31.4086     7825
    31.5005     7789
    31.5925     7643
    31.6844     7653
    31.7763     7706
    31.8682     7765
    31.9601     7614
    32.0520     7853
    32.1439     7817
    32.2358     7984
    32.3278     7949
    32.4197     8032
    32.5116     8015
    32.6035     7903
    32.6954     8191
    32.7873     8554
    32.8792    10027
    32.9711    32846
    33.0630    36646
    33.1550    14761
    33.2469    11126
    33.3388    15803
    33.4307    91925
    33.5226    59050
    33.6145    14267
    33.7064    10381
    33.7983    11382
    33.8903    21197
    33.9822    86144
    34.0741    67280
    34.1660    20055
    34.2579     9599
    34.3498     8374
    34.4417     7926
    34.5336     8173
    34.6256     8014
    34.7175     8321
    34.8094     8938
    34.9013    18723
    34.9932    30642
    35.0851    16603
    35.1770     8522
    35.2689    10123
    35.3608     8821
    35.4528     7518
    35.5447     7273
    35.6366     7342
    35.7285     7283
    35.8204     7430
    35.9123     7356
    36.0042     7233
    36.0961     7139
    36.1881     7190
    36.2800     7721
    36.3719     7572
    36.4638     7310
    36.5557     7327
    36.6476     7657
    36.7395     9594
    36.8314    25093
    36.9234    16691
    37.0153     8100
    37.1072     7425
    37.1991     7287
    37.2910     7366
    37.3829     7464
    37.4748     8131
    37.5667    12920
    37.6586    24492
    37.7506    15828
    37.8425     8368
    37.9344    10156
    38.0263     8582
    38.1182     7175
    38.2101     7111
    38.3020     6819
    38.3939     6829
    38.4859     6835
    38.5778     6777
    38.6697     6817
    38.7616     6774
    38.8535     6824
    38.9454     6658
    39.0373     6854
    39.1292     6756
    39.2212     6722
    39.3131     6834
    39.4050     6827
    39.4969     6807
    39.5888     6808
    39.6807     6809
    39.7726     7060
    39.8645     8862
    39.9564    12805
    40.0484    10273
    40.1403     8068
    40.2322    10950
    40.3241    18921
    40.4160    15978
    40.5079    24803
    40.5998    16210
    40.6917     8724
    40.7837     7421
    40.8756     6968
    40.9675     7228
    41.0594     7674
    41.1513     9637
    41.2432    23822
    41.3351    24948
    41.4270    37915
    41.5190    36788
    41.6109    24553
    41.7028    16428
    41.7947     7749
    41.8866     7131
    41.9785     6801
    42.0704     6762
    42.1623     6588
    42.2542     6666
    42.3462     6604
    42.4381     6599
    42.5300     6546
    42.6219     6694
    42.7138     6609
    42.8057     6561
    42.8976     6710
    42.9895     6735
    43.0815     6645
    43.1734     6636
    43.2653     6575
    43.3572     6587
    43.4491     6533
    43.5410     6762
    43.6329     8155
    43.7248     8222
    43.8167     7427
    43.9087     6703
    44.0006     6579
    44.0925     6683
    44.1844     6493
    44.2763     6809
    44.3682     7781
    44.4601     9886
    44.5520     8051
    44.6440     7000
    44.7359     7361
    44.8278    10984
    44.9197    13103
    45.0116    10844
    45.1035     7204
    45.1954     6643
    45.2873     6512
    45.3793     6644
    45.4712     6596
    45.5631     6693
    45.6550     6858
    45.7469     7333
    45.8388    12289
    45.9307    21362
    46.0226    17670
    46.1146     7669
    46.2065     6837
    46.2984     6811
    46.3903     7460
    46.4822    17303
    46.5741    10910
    46.6660     8650
    46.7579     6900
    46.8498     6618
    46.9418     6631
    47.0337     6809
    47.1256     6759
    47.2175     7049
    47.3094     7748
    47.4013    14918
    47.4932    15868
    47.5851    14287
    47.6771     7893
    47.7690     7780
    47.8609     8628
    47.9528    11437
    48.0447    32320
    48.1366    41808
    48.2285    33986
    48.3204    12330
    48.4123     8904
    48.5043     9437
    48.5962    26982
    48.6881    31040
    48.7800    22415
    48.8719    10734
    48.9638    16816
    49.0557    27026
    49.1476    21238
    49.2396     9624
    49.3315     7440
    49.4234     7082
    49.5153     7396
    49.6072     9264
    49.6991     8594
    49.7910     8086
    49.8829     8008
    49.9749     8563
    50.0668     9543
    50.1587    21234
    50.2506    46067
    50.3425    35025
    50.4344    16386
    50.5263    10410
    50.6182     8416
    50.7102     8999
    50.8021    15626
    50.8940    29801
    50.9859    18681
    51.0778    11659
    51.1697     7568
    51.2616     7164
    51.3535     6961
    51.4454     7192
    51.5374     7500
    51.6293     8526
    51.7212    13294
    51.8131    21570
    51.9050    16103
    51.9969    10937
    52.0888     8084
    52.1807     7893
    52.2727     6780
    52.3646     6849
    52.4565     7171
    52.5484     7497
    52.6403     9160
    52.7322    28471
    52.8241    21123
    52.9160    19986
    53.0079     8628
    53.0999     7684
    53.1918    11223
    53.2837    15093
    53.3756    11526
    53.4675     9492
    53.5594     7069
    53.6513     8859
    53.7432     9753
    53.8352     8866
    53.9271     7135
    54.0190     7101
    54.1109     6867
    54.2028     6566
    54.2947     6451
    54.3866     6519
    54.4785     6423
    54.5705     6599
    54.6624     7332
    54.7543     7108
    54.8462     7106
    54.9381     6587
    55.0300     6608
    55.1219     6508
    55.2138     6565
    55.3057     6434
    55.3977     6807
    55.4896     6877
    55.5815     7386
    55.6734     8507
    55.7653    18060
    55.8572    24122
    55.9491    19328
    56.0410    11570
    56.1330     9798
    56.2249     8366
    56.3168     8670
    56.4087    10173
    56.5006    26924
    56.5925    16028
    56.6844    26806
    56.7763    15292
    56.8683    14961
    56.9602    10941
    57.0521     7842
    57.1440     7448
    57.2359     7914
    57.3278     9914
    57.4197    21982
    57.5116    26101
    57.6035    24514
    57.6955    18470
    57.7874    13370
    57.8793     9251
    57.9712     8306
    58.0631    11993
    58.1550    23020
    58.2469    14021
    58.3388    14336
    58.4308     9537
    58.5227     8523
    58.6146     8149
    58.7065     7774
    58.7984     8649
    58.8903    13934
    58.9822    22843
    59.0741    19793
    59.1661    26924
    59.2580    14996
    59.3499    13798
    59.4418    19356
    59.5337    19256
    59.6256    16190
    59.7175    11311
    59.8094     9075
    59.9013    14627
    59.9933    29248
    60.0852    35967
    60.1771    22693
    60.2690    19204
    60.3609     9014
    60.4528     7533
    60.5447     6901
    60.6366     7138
    60.7286     7236
    60.8205     8233
    60.9124    14131
    61.0043    22785
    61.0962    24984
    61.1881    21847
    61.2800    18893
    61.3719    16416
    61.4639    16300
    61.5558    11762
    61.6477    10293
    61.7396     7291
    61.8315     6630
    61.9234     6458
    62.0153     6310
    62.1072     6519
    62.1991     6128
    62.2911     6300
    62.3830     6282
    62.4749     6343
    62.5668     6650
    62.6587     6238
    62.7506     6485
    62.8425     6230
    62.9344     6156
    63.0264     6232
    63.1183     6280
    63.2102     6249
    63.3021     5992
    63.3940     6134
    63.4859     6116
    63.5778     6080
    63.6697     6290
    63.7617     6307
    63.8536     7603
    63.9455    11235
    64.0374     8447
    64.1293     8936
    64.2212     7094
    64.3131     7131
    64.4050    10343
    64.4969    14196
    64.5889    10566
    64.6808    10196
    64.7727     7281
    64.8646     6384
    64.9565     6140
    65.0484     6005
    65.1403     6078
    65.2322     6328
    65.3242     6806
    65.4161     6661
    65.5080     6965
    65.5999     6290
    65.6918     6374
    65.7837     6001
    65.8756     5984
    65.9675     5969
    66.0594     6009
    66.1514     5937
    66.2433     6033
    66.3352     5850
    66.4271     5925
    66.5190     5824
    66.6109     5912
    66.7028     6173
    66.7947     6492
    66.8867     6331
    66.9786     6716
    67.0705     6152
    67.1624     6167
    67.2543     5887
    67.3462     5905
    67.4381     5807
    67.5300     5779
    67.6220     6056
    67.7139     5843
    67.8058     5999
    67.8977     5977
    67.9896     6016
    68.0815     6260
    68.1734     8976
    68.2653     6760
    68.3573     7437
    68.4492     6598
    68.5411     6546
    68.6330     6919
    68.7249     6751
    68.8168     6789
    68.9087     6672
    69.0006     7024
    69.0925    12870
    69.1845     8059
    69.2764     9353
    69.3683     8176
    69.4602    10424
    69.5521     7007
    69.6440     8471
    69.7359     7272
    69.8278     9102
    69.9198    10591
    70.0117    10397
    70.1036    20264
    70.1955    11898
    70.2874    14146
    70.3793    11303
    70.4712    12513
    70.5631    10816
    70.6551    17440
    70.7470     9211
    70.8389    11681
    70.9308     8390
    71.0227     7344
    71.1146     7557
    71.2065     7438
    71.2984     9196
    71.3903    11982
    71.4823    14229
    71.5742    11579
    71.6661     9947
    71.7580     9148
    71.8499     9511
    71.9418     8680
    72.0337     7701
    72.1256     8464
    72.2176     7781
    72.3095     9537
    72.4014     8553
    72.4933     7737
    72.5852     7728
    72.6771     6434
    72.7690     6459
    72.8609     6564
    72.9529     7867
    73.0448    12193
    73.1367     7755
    73.2286     8875
    73.3205     7772
    73.4124     7864
    73.5043    11549
    73.5962     8183
    73.6881    10108
    73.7801     8638
    73.8720    10094
    73.9639    10866
    74.0558     8376
    74.1477     9050
    74.2396     7318
    74.3315     7282
    74.4234    12849
    74.5154    13897
    74.6073    11662
    74.6992    10484
    74.7911     9790
    74.8830     6624
    74.9749     6293
    75.0668     6063
    75.1587     6019
    75.2506     5923
    75.3426     5941
    75.4345     5839
    75.5264     5844
    75.6183     5974
    75.7102     6020
    75.8021     6076
    75.8940     6198
    75.9859     6339
    76.0779     6285
    76.1698     6435
    76.2617     6815
    76.3536     7276
    76.4455     7145
    76.5374     8044
    76.6293    11941
    76.7212    10710
    76.8132     8259
    76.9051     9425
    76.9970     7132
    77.0889     6762
    77.1808     6350
    77.2727     6754
    77.3646     7954
    77.4565    12403
    77.5484    11872
    77.6404     9115
    77.7323    10274
    77.8242     8995
    77.9161     6689
    78.0080     6979
    78.0999     6926
    78.1918     7848
    78.2837     6880
    78.3757     6809
    78.4676     6835
    78.5595     6745
    78.6514     8625
    78.7433     9389
    78.8352     7707
    78.9271     8626
    79.0190     9555
    79.1110     8105
    79.2029     9131
    79.2948    10929
    79.3867    10178
    79.4786    11666
    79.5705     9186
    79.6624     9522
    79.7543    12512
    79.8462     9685
    79.9382     8213
    80.0301     9531
    80.1220     8054
    80.2139     7428
    80.3058     7371
    80.3977     8425
    80.4896    13831
    80.5815    16660
    80.6735    14602
    80.7654    15173
    80.8573    14092
    80.9492    14906
    81.0411    11146
    81.1330     9839
    81.2249     9577
    81.3168     8482
    81.4088    10381
    81.5007     9940
    81.5926     9814
    81.6845     8592
    81.7764     7785
    81.8683     7129
    81.9602     6388
    82.0521     6507
    82.1441     6448
    82.2360     6831
    82.3279     8263
    82.4198     9146
    82.5117    10091
    82.6036    10522
    82.6955     8901
    82.7874    12621
    82.8793     8353
    82.9713     7271
    83.0632     8136
    83.1551     6705
    83.2470     6511
    83.3389     6296
    83.4308     6353
    83.5227     6359
    83.6146     6218
    83.7066     6639
    83.7985     6813
    83.8904     6922
    83.9823     7183
    84.0742     9362
    84.1661     7454
    84.2580     6819
    84.3499     7852
    84.4418     6437
    84.5338     6221
    84.6257     6375
    84.7176     6445
    84.8095     6007
    84.9014     6311
    84.9933     6194
    85.0852     6344
    85.1771     6088
    85.2691     6188
    85.3610     6329
    85.4529     6081
    85.5448     6482
    85.6367     7624
    85.7286     7956
    85.8205     7500
    85.9124    10160
    86.0043    10039
    86.0963     8654
    86.1882     9600
    86.2801     9118
    86.3720     7392
    86.4639     7241
    86.5558     6781
    86.6477     6316
    86.7396     6506
    86.8316     6838
    86.9235     8510
    87.0154     7276
    87.1073     6999
    87.1992     7685
    87.2911     8276
    87.3830     9113
    87.4749     8502
    87.5669     7639
    87.6588     7833
    87.7507     7189
    87.8426     7051
    87.9345     7147
    88.0264     9022
    88.1183     8878
    88.2102     9575
    88.3021     9112
    88.3941     8521
    88.4860     8773
    88.5779     8196
    88.6698     7462
    88.7617     7099
    88.8536     8644
    88.9455    10839
    89.0374     7493
    89.1294     7362
    89.2213     8562
    89.3132     7898
    89.4051     8935
    89.4970     7180
    89.5889     6923
    89.6808     7537
    89.7727     6845
    89.8647     6788
    89.9566     8414
    90.0485     8408
    90.1404     7476
    90.2323     8788
    90.3242     8103
    90.4161     7061
    90.5080     8131
    90.6000     8695
    90.6919     8112
    90.7838     8320
    90.8757     8926
    90.9676     8300
    91.0595     7937
    91.1514     7389
    91.2433     7508
    91.3352     8838
    91.4272     7753
    91.5191     9558
    91.6110    12168
    91.7029    10072
    91.7948     8670
    91.8867     9811
    91.9786    11833
    92.0705     8938
    92.1625     7451
    92.2544     8571
    92.3463     8726
    92.4382     8159
    92.5301     7464
    92.6220     7091
    92.7139     7185
    92.8058     7256
    92.8978     7532
    92.9897     7212
    93.0816     7632
    93.1735     8358
    93.2654     9741
    93.3573     9466
    93.4492     7652
    93.5411     7676
    93.6330     8199
    93.7250     6557
    93.8169     6236
    93.9088     6010
    94.0007     6102
    94.0926     6005
    94.1845     6134
    94.2764     6111
    94.3683     6183
    94.4603     6514
    94.5522     7758
    94.6441     8740
    94.7360     7545
    94.8279     7466
    94.9198     8155
    95.0117     7622
    95.1036     8418
    95.1955     8072
    95.2875     8053
    95.3794     8303
    95.4713     7841
    95.5632     6766
    95.6551     7222
    95.7470     6581
    95.8389     6088
    95.9308     6133
    96.0228     6153
    96.1147     5954
    96.2066     6081
    96.2985     5894
    96.3904     5964
    96.4823     5965
    96.5742     6101
    96.6661     6311
    96.7580     6415
    96.8500     6713
    96.9419     6431
    97.0338     6617
    97.1257     7518
    97.2176     8074
    97.3095     7983
    97.4014    10108
    97.4933     8483
    97.5853     7985
    97.6772     9504
    97.7691    10536
    97.8610     8598
    97.9529     7589
    98.0448     8713
    98.1367     9215
    98.2286     7460
    98.3206     6667
    98.4125     7174
    98.5044     6902
    98.5963     6337
    98.6882     6325
    98.7801     6450
    98.8720     6793
    98.9639     8896
    99.0559     9591
    99.1478     9485
    99.2397    11971
    99.3316    13527
    99.4235    10346
    99.5154     8918
    99.6073     9638
    99.6992     9484
    99.7911     8899
    99.8831     9090
    99.9750    10020
   100.0669     9737
   100.1588     8720
   100.2507    10245
   100.3426     8541
   100.4345     7714
   100.5264     7326
   100.6184     7339
   100.7103     6707
   100.8022     6676
   100.8941     6886
   100.9860     7512
   101.0779     7696
   101.1698     6793
   101.2617     6863
   101.3537     7206
   101.4456     7110
   101.5375     7443
   101.6294     8707
   101.7213    10292
   101.8132     8796
   101.9051     7906
   101.9970     8910
   102.0889     9679
   102.1809     8724
   102.2728     7795
   102.3647     7142
   102.4566     6936
   102.5485     6918
   102.6404     6602
   102.7323     6197
   102.8242     6155
   102.9162     5782
   103.0081     6033
   103.1000     6024
   103.1919     6193
   103.2838     6273
   103.3757     6008
   103.4676     6213
   103.5595     6305
   103.6515     6400
   103.7434     6042
   103.8353     5998
   103.9272     6270
   104.0191     6457
   104.1110     6186
   104.2029     6259
   104.2948     6531
   104.3867     6941
   104.4787     6928
   104.5706     8245
   104.6625    10931
   104.7544     8703
   104.8463     7720
   104.9382     7434
   105.0301     8453
   105.1220     7251
   105.2140     6723
   105.3059     6433
   105.3978     6329
   105.4897     5959
   105.5816     6346
   105.6735     6952
   105.7654     6528
   105.8573     6222
   105.9492     6216
   106.0412     6383
   106.1331     6441
   106.2250     6279
   106.3169     6896
   106.4088     8915
   106.5007     7246
   106.5926     6738
   106.6845     7146
   106.7765     8893
   106.8684     9843
   106.9603     8964
   107.0522     7616
   107.1441     7730
   107.2360     8663
   107.3279     9277
   107.4198     7984
   107.5118     7065
   107.6037     6812
   107.6956     7623
   107.7875     8633
   107.8794     8393
   107.9713     7329
   108.0632     7386
   108.1551     7358
   108.2470     7407
   108.3390     7051
   108.4309     7015
   108.5228     6648
   108.6147     6508
   108.7066     6880
   108.7985     7274
   108.8904     8298
   108.9823     8706
   109.0743     7566
   109.1662     7410
   109.2581     7824
   109.3500     8249
   109.4419     7414
   109.5338     6912
   109.6257     7206
   109.7176     7336
   109.8096     6743
   109.9015     6501
   109.9934     6608
   110.0853     6781
   110.1772     6863
   110.2691     6778
   110.3610     6522
   110.4529     6492
   110.5449     6893
   110.6368     7078
   110.7287     6815
   110.8206     7464
   110.9125     8080
   111.0044     8286
   111.0963     7151
   111.1882     7136
   111.2801     7318
   111.3721     7952
   111.4640     7275
   111.5559     6601
   111.6478     6500
   111.7397     6588
   111.8316     6707
   111.9235     6445
   112.0154     6588
   112.1074     6351
   112.1993     6492
   112.2912     6631
   112.3831     6681
   112.4750     6614
   112.5669     6432
   112.6588     6375
   112.7507     6457
   112.8427     6451
   112.9346     6423
   113.0265     6414
   113.1184     6688
   113.2103     6522
   113.3022     6742
   113.3941     6890
   113.4860     7156
   113.5779     7586
   113.6699     9072
   113.7618    10915
   113.8537    11029
   113.9456    10595
   114.0375     9697
   114.1294     9590
   114.2213    11164
   114.3132    11384
   114.4052     9708
   114.4971     8380
   114.5890     8210
   114.6809     8362
   114.7728     8057
   114.8647     7364
   114.9566     7286
   115.0485     7364
   115.1404     7737
   115.2324     7820
   115.3243     6862
   115.4162     6729
   115.5081     6761
   115.6000     7025
   115.6919     7086
   115.7838     6865
   115.8757     6997
   115.9677     7312
   116.0596     6914
   116.1515     6822
   116.2434     6732
   116.3353     7154
   116.4272     7707
   116.5191     7441
   116.6110     7150
   116.7029     7296
   116.7949     8139
   116.8868     8804
   116.9787     9124
   117.0706     8613
   117.1625     8365
   117.2544     7892
   117.3463     7996
   117.4382     8124
   117.5302     8604
   117.6221     9935
   117.7140    10150
   117.8059     8928
   117.8978     8662
   117.9897     8078
   118.0816     8208
   118.1735     8652
   118.2655     8576
   118.3574     8662
   118.4493     9347
   118.5412    11370
   118.6331    11902
   118.7250    11622
   118.8169    11717
   118.9088    11345
   119.0008    10914
   119.0927    10496
   119.1846     9471
   119.2765     9371
   119.3684     8804
   119.4603     8206
   119.5522     7706
   119.6441     7379
   119.7360     7611
   119.8280     8257
   119.9199     8833
   120.0118     8260
   120.1037     8096
   120.1956     8108
   120.2875     8519
   120.3794     9119
   120.4713     9929
   120.5633    11196
   120.6552    10446
   120.7471     9538
   120.8390     9253
   120.9309    10070
   121.0228    11510
   121.1147    11066
   121.2066     9437
   121.2986     8809
   121.3905     9004
   121.4824     9394
   121.5743    10237
   121.6662    10237
   121.7581     9691
   121.8500     9640
   121.9419     9260
   122.0338     9504
   122.1258     9769
   122.2177    10877
   122.3096    12620
   122.4015    11851
   122.4934    10535
   122.5853    10777
   122.6772    10501
   122.7691    10999
   122.8611    10933
   122.9530     9798
   123.0449     9208
   123.1368     9209
   123.2287     8879
   123.3206     8223
   123.4125     7792
   123.5044     7446
   123.5964     7201
   123.6883     7312
   123.7802     7298
   123.8721     7130
   123.9640     7212
   124.0559     7220
   124.1478     8085
   124.2397     9307
   124.3316     8273
   124.4236     7631
   124.5155     7735
   124.6074     8010
   124.6993     8581
   124.7912     9730
   124.8831     9435
   124.9750     9993
   125.0669    10358
   125.1589     9149
   125.2508     8473
   125.3427     8184
   125.4346     8082
   125.5265     8583
   125.6184     8538
   125.7103     8253
   125.8022     7794
   125.8941     7574
   125.9861     7221
   126.0780     7164
   126.1699     7137
   126.2618     7208
   126.3537     7492
   126.4456     7713
   126.5375     7868
   126.6294     7863
   126.7214     8264
   126.8133     8438
   126.9052     8066
   126.9971     7926
   127.0890     8508
   127.1809     8265
   127.2728     7872
   127.3647     7900
   127.4567     7676
   127.5486     7762
   127.6405     7926
   127.7324     8011
   127.8243     7953
   127.9162     8363
   128.0081     9744
   128.1000    10324
   128.1920    10161
   128.2839     9503
   128.3758     8478
   128.4677     7999
   128.5596     8177
   128.6515     8458
   128.7434     8737
   128.8353     8557
   128.9272     8366
   129.0192     8048
   129.1111     8060
   129.2030     7661
   129.2949     7390
   129.3868     7327
   129.4787     7554
   129.5706     8000
   129.6625     7901
   129.7545     8582
   129.8464     9027
   129.9383     9392
   130.0302     9159
   130.1221     9078
   130.2140     8310
   130.3059     7956
   130.3978     8398
   130.4897     8892
   130.5817     9592
   130.6736    10567
   130.7655    10587
   130.8574     9630
   130.9493     8980
   131.0412     8615
   131.1331     8549
   131.2251     9103
   131.3170     9516
   131.4089     9681
   131.5008     9700
   131.5927     9835
   131.6846     9536
   131.7765     9384
   131.8684     9779
   131.9603     9916
   132.0522     9849
   132.1442     9226
   132.2361     8837
   132.3280     8451
   132.4199     8360
   132.5118     8343
   132.6037     8539
   132.6956     8696
   132.7876     8414
   132.8795     8397
   132.9714     8647
   133.0633     8594
   133.1552     8947
   133.2471     9085
   133.3390     9144
   133.4309     9645
   133.5228     9406
   133.6148     8592
   133.7067     8435
   133.7986     8508
   133.8905     8872
   133.9824     9735
   134.0743     9704
   134.1662     8859
   134.2581     7999
   134.3501     7438
   134.4420     7538
   134.5339     7745
   134.6258     8011
   134.7177     8378
   134.8096     7893
   134.9015     7724
   134.9934     7577